,ax,ay,az,gx,gy,gz,temp,time,CF_x,CF_y
0,-0.2442085693359375,-0.39264907226562495,22.141576953125,3.6793893129770994,2.404580152671756,0.29770992366412213,2704,162739,-0.9402300519767639,0.6813000510499113
1,-0.32082302246093747,-0.38786066894531246,22.05059729003906,3.885496183206107,2.5343511450381677,0.5419847328244275,2704,162759,-0.865423817396431,0.7340159656951012
2,-0.3447650390625,-0.3591302490234375,22.007501660156247,3.5267175572519083,2.480916030534351,0.22137404580152673,2672,162780,-0.7942335010544008,0.7883407210658544
3,-0.316034619140625,-0.44532150878906246,22.074539306640624,3.8091603053435112,2.450381679389313,0.48091603053435117,2720,162801,-0.7230703458793281,0.8394040371925308
4,-0.32561142578124996,-0.4165910888671875,22.12242333984375,3.6717557251908395,2.145038167938931,0.46564885496183206,2656,162822,-0.654620585903924,0.8836229251589887
5,-0.27293898925781246,-0.37828386230468747,22.069750903320312,3.8091603053435112,2.3893129770992365,0.6030534351145038,2704,162843,-0.5827751577651038,0.9292913859784749
6,-0.33518823242187495,-0.4261678955078125,22.170307373046874,3.7404580152671754,2.3893129770992365,0.2748091603053435,2720,162864,-0.5161656353247044,0.977197958042612
7,-0.32082302246093747,-0.5363011718749999,22.060174096679685,3.5801526717557253,2.381679389312977,0.3893129770992366,2640,162885,-0.46001545501663255,1.0233280141691716
8,-0.32082302246093747,-0.47884033203125,22.160730566406247,3.7709923664122136,2.4198473282442747,0.32061068702290074,2704,162906,-0.39796476307350537,1.0692464124392793
9,-0.55545478515625,-0.6081272216796875,22.03144367675781,3.9083969465648853,2.381679389312977,0.183206106870229,2704,162927,-0.341192987782489,1.1257500554587354
10,0.009576806640625,-0.26336218261718747,22.04580888671875,4.0,2.2977099236641223,0.6870229007633588,2704,162948,-0.2657377378449234,1.150024168818327
11,-0.08140285644531249,-0.296881005859375,21.930887207031247,3.816793893129771,2.5801526717557253,0.5114503816793893,2704,162969,-0.19738481175773606,1.184376216706133
12,-0.1149216796875,-0.19632453613281248,22.04580888671875,3.854961832061069,2.7557251908396947,0.24427480916030533,2704,162990,-0.12430645307922625,1.2233747215431172
13,-0.5315127685546874,-0.373495458984375,22.146365356445312,3.5343511450381677,2.282442748091603,0.4732824427480916,2704,163011,-0.0684072571117576,1.2733726864580095
14,-0.44532150878906246,-0.6416460449218749,22.112846533203125,3.6259541984732824,2.49618320610687,0.366412213740458,2672,163032,-0.02565855420103084,1.3223409810654347
15,-0.373495458984375,-0.45489831542968745,21.97398283691406,3.763358778625954,2.351145038167939,0.5190839694656488,2640,163053,0.028585553012829397,1.3637519987306392
16,-0.0143652099609375,-0.3687070556640625,22.112846533203125,3.984732824427481,2.549618320610687,0.6030534351145038,2720,163074,0.0909145493298748,1.3896924235231938
17,-0.2920926025390625,-0.3447650390625,22.055385693359373,3.595419847328244,2.763358778625954,0.37404580152671757,2704,163095,0.14517875188367713,1.4339418004027087
18,-0.26815058593749996,-0.26815058593749996,22.155942163085935,3.732824427480916,2.7251908396946565,0.6183206106870229,2704,163116,0.2052285081734922,1.475214571772717
19,-0.5267243652343749,-0.44532150878906246,21.97398283691406,3.633587786259542,2.5343511450381677,0.5801526717557252,2720,163137,0.25268339607979945,1.5253243459378172
20,-0.316034619140625,-0.45489831542968745,22.19903779296875,3.83206106870229,2.4122137404580153,0.37404580152671757,2720,163158,0.303014954064244,1.560770417361979
21,-0.22505495605468748,-0.49320554199218747,22.012290063476563,3.786259541984733,2.404580152671756,0.4961832061068702,2640,163179,0.34920488211749645,1.5907538297269286
22,-0.1867477294921875,-0.44053310546874996,22.12721174316406,3.9160305343511452,2.5877862595419847,0.31297709923664124,2704,163200,0.400001546254429,1.6218644688285007
23,-0.296881005859375,-0.2825157958984375,21.978771240234373,3.687022900763359,2.5114503816793894,0.5267175572519084,2704,163221,0.4531516238377312,1.6565892070669408
24,-0.4213794921875,-0.40222587890625,22.055385693359373,3.7251908396946565,2.5267175572519083,0.2366412213740458,2720,163242,0.4998571785657627,1.6973442754545949
25,-0.3447650390625,-0.33039982910156246,22.146365356445312,3.717557251908397,2.145038167938931,0.5801526717557252,2704,163263,0.5492728096529474,1.7253779684798605
26,-0.1771709228515625,-0.47884033203125,22.093692919921875,3.763358778625954,2.7404580152671754,0.32061068702290074,2656,163284,0.5909055428672727,1.7564558608688994
27,-0.08140285644531249,-0.44053310546874996,22.069750903320312,3.6564885496183206,2.5801526717557253,0.6946564885496184,2720,163305,0.6314674443543915,1.7786520606403382
28,-0.3591302490234375,-0.4644751220703125,21.964406030273437,3.83206106870229,2.687022900763359,0.42748091603053434,2720,163326,0.6734731684255121,1.8171084514930904
29,-0.38307226562499996,-0.296881005859375,22.132000146484373,3.648854961832061,2.549618320610687,0.4122137404580153,2672,163347,0.7197266283340821,1.853067771517602
30,-0.4213794921875,-0.45010991210937495,22.18467258300781,3.801526717557252,2.50381679389313,0.35877862595419846,2672,163368,0.7603209607705497,1.8892935898717904
31,-0.316034619140625,-0.4836287353515625,21.983559643554685,3.9236641221374047,2.549618320610687,0.3282442748091603,2720,163389,0.8006579712180301,1.9204473728171194
32,-0.22026655273437498,-0.3591302490234375,22.12721174316406,3.900763358778626,2.3282442748091605,0.2748091603053435,2736,163410,0.8463256543719603,1.9413588938856678
33,-0.277727392578125,-0.39743747558593745,22.079327709960936,3.7557251908396947,2.4656488549618323,0.5114503816793893,2640,163431,0.886067215439628,1.9676857076441994
34,-0.28730419921875,-0.4740519287109375,22.05059729003906,3.9083969465648853,2.2977099236641223,0.4351145038167939,2656,163452,0.924149155677408,1.9905450667067663
35,0.97683427734375,-0.19632453613281248,22.165518969726563,2.7480916030534353,6.32824427480916,-4.366412213740458,2672,163473,0.9520725543405687,2.0305035722133096
36,-0.5315127685546874,-1.4604630126953124,22.0266552734375,3.3282442748091605,5.015267175572519,-17.916030534351144,2720,163494,0.9256582333642421,2.1206932288948424
37,-0.27293898925781246,-2.6767174560546874,22.155942163085935,4.8320610687022905,3.3587786259541983,-64.44274809160305,2704,163515,0.8688155288132606,2.161416954638373
38,0.967257470703125,-2.398990063476562,22.237345019531247,-1.282442748091603,2.9618320610687023,17.389312977099237,2656,163536,0.7019001359520616,2.1296176473618287
39,-1.3168109130859373,0.689530078125,22.165518969726563,-3.480916030534351,1.9312977099236641,6.099236641221374,2720,163557,0.6518607956367163,2.1947353268119496
40,-0.44532150878906246,-0.5698199951171875,22.0266552734375,-4.366412213740458,3.954198473282443,2.1068702290076335,2640,163578,0.5193250886188343,2.2553745478480947
41,-0.3687070556640625,-0.55545478515625,22.151153759765624,-6.8320610687022905,3.3206106870229006,2.618320610687023,2640,163599,0.33960620149558074,2.2976712933646137
42,-0.229843359375,-0.5027823486328125,22.074539306640624,-9.381679389312977,3.969465648854962,2.8931297709923665,2720,163620,0.11364359784000021,2.345337388247892
43,-0.5027823486328125,0.5793968017578125,22.036232080078122,-11.290076335877863,3.6259541984732824,9.022900763358779,2704,163641,-0.09085652273903067,2.3991846157394052
44,-0.4213794921875,-0.44053310546874996,22.309171069335935,-16.38167938931298,2.648854961832061,5.3893129770992365,2704,163662,-0.44879949571438843,2.4273518203670323
45,-1.0390835205078124,-0.7852981445312499,22.079327709960936,-20.442748091603054,3.572519083969466,3.114503816793893,2704,163683,-0.9012750081637779,2.506181827138329
46,-0.3591302490234375,-1.5849614990234373,21.859061157226563,-20.229007633587788,3.4885496183206106,0.26717557251908397,2640,163704,-1.3825056257197446,2.546628218278383
47,-0.19153613281249998,-1.7956512451171873,21.916521997070312,-20.885496183206108,3.801526717557252,2.6946564885496183,2640,163725,-1.8783562519778279,2.583911933193425
48,-0.33518823242187495,-1.3551181396484375,22.060174096679685,-21.85496183206107,3.1603053435114505,2.648854961832061,2640,163746,-2.3608675044236933,2.6146500391515692
49,0.1292868896484375,-2.3127988037109373,21.959617626953122,-21.450381679389313,3.3587786259541983,9.297709923664122,2736,163767,-2.8753441633838905,2.6247713292448864
50,-0.028730419921875,-2.6623522460937497,22.088904516601563,-23.091603053435115,2.366412213740458,14.610687022900763,2720,163788,-3.430515418071977,2.6224564159532933
51,-0.5267243652343749,-2.1356278808593747,21.87821477050781,-19.0381679389313,3.2900763358778624,12.67175572519084,2704,163809,-3.86521515619918,2.665169549369933
52,-0.49799394531249996,-2.427720483398437,21.653159814453122,-12.893129770992367,2.954198473282443,10.297709923664122,2656,163830,-4.181195512821792,2.6988494419202937
53,-0.5123591552734374,-2.2074539306640624,22.189460986328125,-11.83206106870229,2.9389312977099236,3.931297709923664,2720,163851,-4.45469964569644,2.731680484271718
54,-0.5219359619140624,-2.5522189697265625,21.89257998046875,-17.3206106870229,5.099236641221374,0.8015267175572519,2704,163872,-4.85505341182252,2.8091198294799344
55,-0.45968671875,-2.7629087158203123,21.868637963867187,-22.34351145038168,5.198473282442748,0.6412213740458015,2720,163893,-5.361795078613106,2.883816139123123
56,-0.5219359619140624,-2.844311572265625,21.734562670898438,-22.740458015267176,2.3587786259541983,2.4732824427480917,2720,163914,-5.8716716158760915,2.901963805297176
57,-0.565031591796875,-3.0310593017578125,21.8734263671875,-23.259541984732824,2.2213740458015265,3.2900763358778624,2704,163935,-6.3907073045800695,2.918954979970714
58,-0.24899697265624998,-2.6671406494140624,21.7585046875,-24.404580152671755,0.37404580152671757,3.3587786259541983,2608,163956,-6.904907609733519,2.881289231100679
59,-0.6703764648437499,-3.0597897216796874,21.600487377929685,-26.480916030534353,5.511450381679389,-6.938931297709924,2704,163977,-7.473037106038833,2.972290266291137
60,-0.5315127685546874,-4.740519287109374,21.447258471679685,-15.106870229007633,0.8549618320610687,-0.44274809160305345,2736,163998,-7.883751301499952,2.9581633328224726
61,-0.47884033203125,-3.356670727539062,22.007501660156247,-23.80916030534351,1.6717557251908397,2.5267175572519083,2704,164019,-8.389511626374661,2.958048838355254
62,-0.5602431884765625,-4.146757275390625,21.538238134765624,-27.64885496183206,1.2442748091603053,3.3435114503816794,2704,164040,-9.008691035426063,2.953758185041407
63,-0.6416460449218749,-4.046200805664062,21.634006201171875,-26.458015267175572,1.0687022900763359,-1.381679389312977,2720,164061,-9.584895563863663,2.9500750487309384
64,-0.430956298828125,-4.673481640625,21.50950771484375,-27.61832061068702,2.2442748091603053,-5.00763358778626,2640,164082,-10.206751072009034,2.9596935152786616
65,-0.3447650390625,-4.754884497070313,21.35627880859375,-25.083969465648856,1.251908396946565,0.32061068702290074,2592,164103,-10.769882731999834,2.9443193726871106
66,-0.507570751953125,-4.8123453369140625,21.394586035156248,-25.69465648854962,0.40458015267175573,0.1450381679389313,2640,164124,-11.336815542638506,2.92027781897103
67,-0.5793968017578125,-5.099649536132812,21.370644018554685,-25.35114503816794,0.8473282442748091,0.10687022900763359,2704,164145,-11.900234216476953,2.90952263046122
68,-0.44053310546874996,-5.248090039062499,21.28445275878906,-23.068702290076335,1.7099236641221374,-0.17557251908396945,2672,164166,-12.414005147375992,2.909547120064674
69,-0.45010991210937495,-5.295974072265625,21.389797631835936,-28.946564885496183,1.7786259541984732,-0.17557251908396945,2720,164187,-13.039573281952007,2.911364000760929
70,-0.469263525390625,-5.66946953125,21.097705029296876,-35.02290076335878,1.816793893129771,-0.6259541984732825,2736,164208,-13.800381840619197,2.915137206860878
71,-0.507570751953125,-5.951985327148437,20.982783349609374,-36.63358778625954,2.0839694656488548,-0.5114503816793893,2720,164229,-14.595024259693094,2.926385169234167
72,-0.45968671875,-6.4356140625,20.89659208984375,-34.81679389312977,1.9923664122137406,-0.46564885496183206,2656,164250,-15.362003178117014,2.9329482252190875
73,-0.316034619140625,-6.675034228515624,20.69069074707031,-28.83969465648855,1.4122137404580153,1.8931297709923665,2704,164271,-16.005888956019962,2.9200090494335154
74,-0.3016694091796875,-6.852205151367187,20.76730520019531,-25.053435114503817,1.1145038167938932,4.33587786259542,2656,164292,-16.566578632811005,2.90035187738248
75,-0.27293898925781246,-6.947973217773437,20.776882006835937,-26.15267175572519,-0.5267175572519084,6.450381679389313,2704,164313,-17.143276869373175,2.8457806563301875
76,-0.55545478515625,-7.015010864257812,20.66674873046875,-28.053435114503817,-0.7251908396946565,5.152671755725191,2704,164334,-17.75273089015203,2.803098497096236
77,-0.43574470214843747,-7.4411787597656245,20.66674873046875,-27.6793893129771,1.16793893129771,3.3893129770992365,2720,164355,-18.3633520407152,2.793801985495034
78,-0.37828386230468747,-7.56567724609375,20.32677209472656,-26.931297709923665,0.8244274809160306,3.5572519083969465,2704,164376,-18.95863904572584,2.774876774877436
79,-0.5506663818359374,-7.613561279296874,20.317195288085937,-27.17557251908397,1.0229007633587786,1.5954198473282444,2672,164397,-19.549594056023313,2.769507605469023
80,-0.3112462158203125,-8.06367119140625,20.02031428222656,-26.587786259541986,1.8931297709923665,2.0839694656488548,2720,164418,-20.144545150198557,2.76960187378417
81,-0.5363011718749999,-8.010998754882811,20.331560498046873,-26.33587786259542,2.404580152671756,-0.6183206106870229,2720,164439,-20.71375317310371,2.791812869589991
82,-0.59376201171875,-8.226476904296874,20.00116066894531,-30.480916030534353,5.755725190839694,-4.748091603053435,2672,164460,-21.37392264966109,2.8858824569536656
83,-0.2442085693359375,-8.796296899414061,19.833566552734375,-27.893129770992367,6.480916030534351,-4.67175572519084,2720,164481,-21.998835849844806,2.9744394617542587
84,-0.47884033203125,-8.781931689453124,19.84793176269531,-24.427480916030536,4.854961832061068,-0.5190839694656488,2704,164502,-22.538926922627635,3.0401432530274906
85,-0.39264907226562495,-9.165003955078124,19.776105712890622,-22.3206106870229,1.3129770992366412,-0.9007633587786259,2704,164523,-23.04480276722185,3.027002019303838
86,-0.3399766357421875,-9.165003955078124,19.531897143554687,-16.17557251908397,-2.2061068702290076,0.9541984732824428,2656,164544,-23.419550055426285,2.939115798952311
87,-0.19632453613281248,-9.390058911132812,19.723433276367185,-13.51908396946565,-5.106870229007634,2.7251908396946565,2704,164565,-23.73855150887267,2.7855325279342686
88,-0.0430956298828125,-9.342174877929686,19.92454621582031,-12.49618320610687,0.8015267175572519,0.26717557251908397,2704,164586,-24.02336856846207,2.7485614081206173
89,-0.143652099609375,-9.380482104492186,19.699491259765622,-11.106870229007633,0.0,0.33587786259541985,2704,164607,-24.28073667548678,2.701134601281754
90,-0.2154781494140625,-9.361328491210937,19.670760839843748,-16.717557251908396,1.4427480916030535,-0.4351145038167939,2672,164628,-24.6481654435181,2.6881378435489585
91,-0.15322890625,-9.490615380859374,19.661184033203124,-23.83969465648855,4.526717557251908,-1.1374045801526718,2704,164649,-25.161162774395944,2.735577483042481
92,-0.26815058593749996,-9.835380419921874,19.40739865722656,-30.129770992366414,6.748091603053435,-0.22900763358778625,2736,164670,-25.815514452093332,2.8338638989103875
93,-0.15322890625,-10.127473022460936,19.182343701171874,-26.129770992366414,4.213740458015267,-0.40458015267175573,2656,164691,-26.39359834849467,2.871999961688424
94,-0.5698199951171875,-10.453084448242187,18.81363664550781,-22.702290076335878,2.6946564885496183,1.5801526717557253,2656,164712,-26.914081118542658,2.900347589278143
95,-0.4261678955078125,-10.639832177734375,18.75138740234375,-23.3206106870229,0.13740458015267176,3.1526717557251906,2656,164733,-27.44716282919281,2.867816647125155
96,-0.354341845703125,-10.098742602539062,19.15840168457031,-26.427480916030536,-0.35877862595419846,4.732824427480916,2640,164754,-27.997987760249178,2.8218238535812383
97,-0.2346317626953125,-10.793061083984375,18.990807568359372,-38.38931297709924,-4.541984732824427,9.297709923664122,2704,164775,-28.82029814011458,2.684221667991192
98,-0.603338818359375,-10.682927807617187,18.641254125976563,-45.29770992366412,-6.679389312977099,9.022900763358779,2704,164796,-29.772442137888262,2.5252458320200444
99,-0.5985504150390625,-10.927136376953124,17.97087766113281,-48.595419847328245,-4.748091603053435,5.175572519083969,2672,164817,-30.80311829637701,2.409627683272456
100,-0.2825157958984375,-11.688492504882811,17.922993627929685,-44.43511450381679,-0.3053435114503817,-0.6641221374045801,2704,164838,-31.763738748423624,2.370280025507377
101,-0.5889736083984375,-11.9135474609375,17.870321191406248,-38.954198473282446,0.06870229007633588,-1.4122137404580153,2736,164859,-32.6039427285549,2.3557047496246843
102,-0.296881005859375,-12.220005273437499,17.477672119140625,-34.12977099236641,0.35877862595419846,-3.2290076335877864,2640,164880,-33.35346260782575,2.331925686565674
103,-0.1149216796875,-12.449848632812499,17.520767749023438,-27.14503816793893,2.6259541984732824,-4.213740458015267,2704,164901,-33.9529724936246,2.34545620938749
104,-0.0718260498046875,-12.435483422851561,17.472883715820313,-27.68702290076336,1.6870229007633588,-3.312977099236641,2640,164922,-34.552502533718986,2.33710380485277
105,-0.023942016601562498,-12.899958544921875,17.329231616210937,-27.801526717557252,3.5267175572519083,-3.6564885496183206,2720,164943,-35.166891184122726,2.3642115332319733
106,-0.009576806640625,-12.9861498046875,16.9701013671875,-24.755725190839694,2.2213740458015265,-0.15267175572519084,2640,164964,-35.72151727311576,2.3631567434542813
107,0.0430956298828125,-13.005303417968749,17.113753466796872,-27.229007633587788,0.8778625954198473,1.465648854961832,2704,164985,-36.31210780610518,2.3316625203345147
108,-0.143652099609375,-13.172897534179686,16.807295654296873,-26.442748091603054,-2.1374045801526718,4.351145038167939,2704,165006,-36.891816465697595,2.248749997809219
109,-0.09576806640624999,-13.340491650390625,16.534356665039063,-22.51145038167939,-0.3969465648854962,3.786259541984733,2672,165027,-37.39522161317522,2.200771332213673
110,-0.0909796630859375,-13.316549633789062,16.639701538085937,-25.045801526717558,-0.19083969465648856,2.6946564885496183,2704,165048,-37.93615698628836,2.1577201930985925
111,-0.0909796630859375,-13.565546606445311,16.443377001953124,-29.290076335877863,1.5190839694656488,1.0458015267175573,2704,165069,-38.57066631514166,2.150719237012408
112,-0.22505495605468748,-13.5990654296875,16.275782885742185,-33.9236641221374,2.015267175572519,0.5572519083969466,2736,165090,-39.29500402861074,2.161338053471916
113,-0.076614453125,-13.891158032226562,16.180014819335938,-42.87022900763359,0.3053435114503817,3.6793893129770994,2640,165111,-40.204320150684666,2.1285121749392535
114,-0.11013327636718749,-13.92467685546875,16.17043801269531,-51.94656488549618,0.015267175572519083,1.8625954198473282,2720,165132,-41.28394159941935,2.092170118778105
115,-0.06703764648437499,-14.585476513671875,15.332467431640625,-52.93893129770992,0.06870229007633588,-0.1297709923664122,2704,165153,-42.41914070800934,2.0553707034432462
116,0.0143652099609375,-14.944606762695312,14.939818359375,-47.10687022900763,0.732824427480916,-0.24427480916030533,2720,165174,-43.44040089405469,2.0285658211719055
117,-0.033518823242187495,-15.002067602539062,14.805743066406249,-46.0,1.2366412213740459,-1.2671755725190839,2720,165195,-44.42582016289677,2.0152668670246725
118,-0.05746083984375,-15.217545751953125,14.642937353515624,-47.13740458015267,0.5648854961832062,-0.8549618320610687,2736,165216,-45.42943979821298,1.9897047668607317
119,-0.08140285644531249,-15.567099194335936,14.07790576171875,-47.541984732824424,-1.0458015267175573,-1.0534351145038168,2672,165237,-46.456780866129236,1.9328324060159499
120,-0.1005564697265625,-15.744270117187499,13.766659545898436,-43.770992366412216,-4.778625954198473,0.11450381679389313,2720,165258,-47.40512866487427,1.8013412151102295
121,0.0,-16.060304736328124,13.460201733398437,-37.3587786259542,-2.3282442748091605,-2.49618320610687,2720,165279,-48.2265397608298,1.7173991236324522
122,0.05746083984375,-16.218322045898436,13.029245434570312,-27.572519083969464,-2.0763358778625953,-2.786259541984733,2704,165300,-48.85390731210873,1.6371550864277111
123,0.16280571289062498,-16.2805712890625,13.192051147460937,-20.81679389312977,1.6412213740458015,-3.8473282442748094,2736,165321,-49.324885851762495,1.6292852844860504
124,0.15322890625,-16.175226416015622,13.316549633789062,-19.786259541984734,4.1603053435114505,-5.320610687022901,2704,165342,-49.75631853951751,1.6739381819499766
125,0.1771709228515625,-16.333243725585938,13.081917871093749,-22.297709923664122,6.801526717557252,-6.305343511450381,2704,165363,-50.24622766723297,1.770733278456463
126,0.2059013427734375,-16.673220361328124,12.694057202148437,-19.625954198473284,5.114503816793893,-5.213740458015267,2704,165384,-50.69953292716053,1.8293161324089515
127,0.2346317626953125,-16.654066748046873,12.603077539062499,-15.877862595419847,4.419847328244275,-3.351145038167939,2672,165405,-51.06997146716566,1.8708172440445576
128,0.181959326171875,-16.50562624511719,12.559981909179687,-17.198473282442748,2.3435114503816794,-2.1068702290076335,2672,165426,-51.457129079691214,1.8715775834988706
129,0.2537853759765625,-16.390704565429687,12.66053837890625,-26.46564885496183,3.786259541984733,-3.687022900763359,2720,165447,-52.01898391210786,1.8980262877712757
130,0.2825157958984375,-16.764200024414063,12.435483422851561,-33.37404580152672,7.068702290076335,-6.290076335877862,2672,165468,-52.7340904417752,1.9900306047618406
131,0.2059013427734375,-17.25740556640625,11.77947216796875,-28.53435114503817,4.183206106870229,-3.9083969465648853,2704,165489,-53.380316284105206,2.0250284278970008
132,0.39264907226562495,-17.022773803710937,11.903970654296874,-23.442748091603054,4.404580152671755,-4.083969465648855,2736,165510,-53.89586232633568,2.0535157632886096
133,0.39264907226562495,-17.33880842285156,11.516109985351562,-18.625954198473284,6.2748091603053435,-4.229007633587786,2704,165531,-54.32943994251417,2.1199670839958378
134,0.40222587890625,-17.171214306640625,11.597512841796874,-16.793893129770993,8.374045801526718,-5.603053435114504,2768,165552,-54.707764206423676,2.2276642677201766
135,0.26815058593749996,-17.549498168945313,11.161768139648437,-15.961832061068701,10.16030534351145,-6.030534351145038,2720,165573,-55.092962862148696,2.3774367110912973
136,0.3064578125,-17.439364892578123,11.066000073242186,-12.664122137404581,5.030534351145038,-2.648854961832061,2704,165594,-55.40379482650552,2.416414873842428
137,0.43574470214843747,-17.444153295898438,11.200075366210937,-11.244274809160306,7.083969465648855,-3.786259541984733,2720,165615,-55.67307363531693,2.4897912669573343
138,0.507570751953125,-17.310078002929686,11.367669482421874,-11.412213740458014,9.244274809160306,-5.190839694656488,2736,165636,-55.92861086713184,2.6021622273514633
139,0.32561142578124996,-17.544709765624997,10.845733520507812,-12.778625954198473,11.549618320610687,-5.916030534351145,2736,165657,-56.23855482692792,2.7697220018927764
140,0.2825157958984375,-17.626112622070313,10.702081420898438,-13.557251908396946,3.984732824427481,-1.4809160305343512,2704,165678,-56.56749297048271,2.7806346444545795
141,0.3687070556640625,-17.515979345703123,10.965443603515624,-19.48854961832061,1.9236641221374047,-0.4122137404580153,2736,165699,-56.99626543342789,2.7441677821873744
142,0.44532150878906246,-17.717092285156248,10.611101757812499,-23.65648854961832,0.5877862595419847,-0.6717557251908397,2768,165720,-57.52482686563193,2.6766749705249095
143,0.33039982910156246,-17.726669091796875,10.299855541992187,-28.87786259541985,-3.8625954198473282,1.5114503816793894,2736,165741,-58.165473049558734,2.525183637970786
144,0.5602431884765625,-17.97087766113281,10.175357055664062,-32.83969465648855,-8.244274809160306,2.351145038167939,2704,165762,-58.887621837202126,2.2739337127070565
145,0.45010991210937495,-18.06185732421875,9.82580361328125,-30.12213740458015,-7.106870229007634,1.8778625954198473,2720,165783,-59.558851672163065,2.0571145759508696
146,0.5410895751953124,-18.205509423828126,9.567229833984374,-28.908396946564885,-4.244274809160306,0.42748091603053434,2656,165804,-60.20815935302337,1.8984835593747227
147,0.507570751953125,-18.191144213867187,9.303867651367186,-25.572519083969464,-9.694656488549619,2.6564885496183206,2640,165825,-60.78852879643026,1.6325373767531965
148,0.5219359619140624,-18.43056437988281,9.265560424804686,-19.34351145038168,-8.244274809160306,2.2442748091603053,2704,165846,-61.23704856344209,1.4012320787716277
149,0.45968671875,-18.492813623046874,8.71489404296875,-13.030534351145038,-9.633587786259541,3.7251908396946565,2704,165867,-61.5758249441292,1.149185712933787
150,0.6081272216796875,-18.320431103515624,9.169792358398437,-9.49618320610687,-4.091603053435114,1.4580152671755726,2736,165888,-61.80795976033865,1.0079921792626385
151,0.6512228515624999,-18.171990600585936,9.361328491210937,-13.511450381679388,0.9389312977099237,-0.7862595419847328,2720,165909,-62.10475964648798,0.9706614779988182
152,0.5219359619140624,-18.464083203125,8.834604125976561,-11.290076335877863,1.3587786259541985,-0.9083969465648855,2672,165930,-62.38361514320384,0.9499984564715263
153,0.612915625,-18.593370092773437,8.590395556640624,-10.122137404580153,2.2061068702290076,-1.0763358778625953,2704,165951,-62.648304553627746,0.9421191690162753
154,0.6655880615234374,-18.804059838867186,8.384494213867187,-4.526717557251908,3.0,-0.6412213740458015,2704,165972,-62.807868464109774,0.9479846202627514
155,0.6416460449218749,-18.411410766601563,8.63827958984375,0.7251908396946565,2.2595419847328246,0.2366412213740458,2784,165993,-62.834085349212316,0.9393841601248141
156,0.6272808349609375,-18.38746875,8.724470849609375,-4.801526717557252,2.49618320610687,-0.4580152671755725,2704,166014,-62.96855175874149,0.9366606632797893
157,0.622492431640625,-18.411410766601563,8.609549169921875,-9.900763358778626,4.267175572519084,-1.5038167938931297,2736,166035,-63.211703546456455,0.9706609568037303
158,0.699106884765625,-18.416199169921875,8.777143286132812,-15.297709923664122,6.9541984732824424,-2.7709923664122136,2656,166056,-63.55264784270772,1.055111672431179
159,0.6416460449218749,-18.962077148437498,7.79552060546875,-16.30534351145038,7.0,-2.3587786259541983,2720,166077,-63.97019668836103,1.142217639721637
160,0.737414111328125,-18.899827905273437,7.967903124999999,-7.305343511450381,4.809160305343512,-0.5267175572519084,2720,166098,-64.18394456886897,1.1771649416319296
161,0.6081272216796875,-18.54069765625,8.125920434570313,-7.251908396946565,10.49618320610687,-3.519083969465649,2736,166119,-64.37617739977911,1.3352189602207611
162,0.7757213378906249,-18.69871496582031,8.33182177734375,-9.648854961832061,19.81679389312977,-6.122137404580153,2656,166140,-64.60688888111929,1.67294198385573
163,0.7230489013671875,-18.535909252929688,8.192958081054687,-10.625954198473282,27.564885496183205,-8.549618320610687,2720,166161,-64.85652020996837,2.165901615774361
164,0.316034619140625,-19.24938134765625,6.49307490234375,-13.603053435114504,23.16030534351145,-6.549618320610687,2736,166182,-65.26654180961071,2.5813974144026894
165,0.9337386474609375,-18.90940471191406,7.41244833984375,-16.61832061068702,3.3282442748091605,-0.42748091603053434,2736,166203,-65.67511443520861,2.545619986173373
166,0.7230489013671875,-18.856732275390623,7.584830859375,-6.900763358778626,2.6717557251908395,-0.007633587786259542,2736,166224,-65.86539586463192,2.5089443061929377
167,0.5793968017578125,-18.890251098632813,7.340622290039062,-8.01526717557252,2.4656488549618323,-0.16793893129770993,2736,166245,-66.08832643171186,2.4767567488535898
168,0.622492431640625,-18.73702219238281,7.445967163085937,-8.86259541984733,2.572519083969466,-0.3816793893129771,2672,166266,-66.31550128526331,2.4447962073574985
169,0.7038952880859375,-18.880674291992186,7.235277416992187,-13.488549618320612,4.1679389312977095,-1.7633587786259541,2720,166287,-66.64743821743447,2.441800205070052
170,0.689530078125,-18.966865551757813,7.082048510742187,-12.083969465648854,5.3816793893129775,-1.4198473282442747,2720,166308,-66.95367440240864,2.4647069639557184
171,0.8188169677734375,-18.823213452148437,7.292738256835937,-12.954198473282442,4.564885496183206,-0.9541984732824428,2704,166329,-67.25763786112522,2.4629024660047443
172,0.7757213378906249,-18.871097485351562,7.187393383789062,-16.083969465648856,5.885496183206107,-1.4198473282442747,2720,166350,-67.62648867641262,2.49076986646711
173,0.679953271484375,-18.703503369140623,6.794744311523437,-29.374045801526716,10.007633587786259,-2.9389312977099236,2720,166371,-68.27916800729847,2.6077715632936322
174,0.7278373046875,-19.053056811523437,6.291961962890625,-34.01526717557252,15.885496183206106,-3.9236641221374047,2768,166392,-69.0481195346002,2.840991129304977
175,0.086191259765625,-19.29247697753906,4.707000463867187,-34.55725190839695,8.488549618320612,-2.030534351145038,2672,166413,-69.90412105218459,2.9538920771931414
176,0.842758984375,-19.359514624023436,5.779602807617187,-26.419847328244273,1.702290076335878,-0.13740458015267176,2720,166434,-70.51730899323019,2.8820756663227125
177,0.814028564453125,-19.47922470703125,5.444414575195312,-17.099236641221374,1.8473282442748091,0.1984732824427481,2720,166455,-70.94655311451139,2.8163572722253916
178,0.9002198242187499,-19.258958154296874,5.487510205078125,-12.045801526717558,2.183206106870229,0.22900763358778625,2704,166476,-71.25744475756048,2.7534820224510703
179,0.7805097412109374,-19.100940844726562,5.693411547851563,-13.992366412213741,2.2595419847328246,0.16793893129770993,2704,166497,-71.58830428574846,2.700062851147383
180,0.8571241943359375,-19.182343701171874,5.45877978515625,-20.709923664122137,2.9236641221374047,-0.4198473282442748,2736,166518,-72.06504984039657,2.6570132386056855
181,0.7422025146484375,-19.24938134765625,5.161898779296875,-21.709923664122137,2.450381679389313,0.16030534351145037,2736,166539,-72.5703145497414,2.611645980389658
182,0.8475473876953125,-19.335572607421874,5.066130712890625,-28.328244274809162,1.83206106870229,-0.17557251908396945,2704,166560,-73.20826185185432,2.5485565267307884
183,0.7948749511718749,-19.378668237304687,4.563348364257812,-26.328244274809162,1.3511450381679388,-0.12213740458015267,2736,166581,-73.82091632327929,2.4796644458692696
184,0.97683427734375,-19.627665209960938,4.3430818115234375,-21.33587786259542,0.5725190839694656,-0.061068702290076333,2672,166602,-74.33405043265036,2.3862140597886667
185,0.948103857421875,-19.531897143554687,4.132392065429687,-14.038167938931299,-2.1068702290076335,0.9236641221374046,2768,166623,-74.69735517888036,2.240751647072192
186,0.7565677246093749,-19.349937817382813,4.204218115234375,-11.977099236641221,-8.687022900763358,1.633587786259542,2656,166644,-75.00473080763712,1.9733960733750817
187,0.8858546142578124,-19.455282690429687,4.228160131835938,-9.526717557251908,-9.748091603053435,1.549618320610687,2720,166665,-75.2554708198496,1.682359407320411
188,0.9528922607421875,-19.364303027343748,4.247313745117188,-10.98473282442748,-11.32824427480916,1.3969465648854962,2656,166686,-75.52900328641279,1.3605396366515687
189,0.9911994873046874,-19.656395629882812,3.897760302734375,-8.908396946564885,-5.648854961832061,1.1145038167938932,2704,166707,-75.77743889719717,1.1604408930095707
190,0.6655880615234374,-19.38824504394531,4.017470385742187,-9.022900763358779,-2.83206106870229,0.5114503816793893,2816,166728,-76.0134477929942,1.0404423671699599
191,0.7852981445312499,-19.340361010742185,3.6679169433593746,-11.687022900763358,-4.534351145038168,0.6870229007633588,2736,166749,-76.31892454817844,0.8806267648496011
192,1.0199299072265624,-19.474436303710938,3.782838623046875,-14.755725190839694,-18.16030534351145,0.9083969465648855,2720,166770,-76.67636677669299,0.43041337442013783
193,0.51714755859375,-19.680337646484375,3.5625720703124997,-7.641221374045801,-8.427480916030534,0.4732824427480916,2768,166791,-76.89488224637418,0.2187440598539208
194,1.20667763671875,-19.440917480468748,3.208230224609375,-5.9541984732824424,-13.488549618320612,1.633587786259542,2672,166812,-77.0921068277309,-0.13331428777177495
195,0.97683427734375,-19.38824504394531,3.303998291015625,-12.709923664122137,-5.290076335877862,0.4122137404580153,2672,166833,-77.41841469049751,-0.29638500403007906
196,0.6607996582031249,-19.642030419921873,3.2225954345703123,-10.13740458015267,-10.740458015267176,0.7938931297709924,2720,166854,-77.69232821104912,-0.549524391291455
197,0.5602431884765625,-19.656395629882812,3.4955344238281247,-4.305343511450381,-9.916030534351146,0.5877862595419847,2720,166875,-77.82541352401131,-0.7747535641757972
198,0.9911994873046874,-19.46485949707031,2.89219560546875,-4.969465648854962,-6.809160305343512,0.6030534351145038,2736,166896,-78.00214711817489,-0.9570614965340627
199,0.6943184814453125,-19.08178723144531,3.4428619873046875,-14.106870229007633,-3.2748091603053435,0.0916030534351145,2720,166917,-78.32787062021453,-1.046331569514624
200,0.6751648681640625,-19.551050756835938,3.0693665283203124,-10.534351145038167,-7.4961832061068705,0.42748091603053434,2720,166938,-78.59966660409718,-1.2187548001083655
201,0.8188169677734375,-19.393033447265623,3.0502129150390624,-4.923664122137405,-9.755725190839694,0.7404580152671756,2736,166959,-78.75023269616419,-1.4429203669141792
202,1.005564697265625,-19.670760839843748,2.360682836914062,1.366412213740458,-2.5572519083969465,0.8396946564885496,2736,166980,-78.81024081114218,-1.5248019399470611
203,0.8092401611328125,-19.986795458984375,2.3127988037109373,3.099236641221374,0.31297709923664124,0.9923664122137404,2736,167001,-78.83823969275774,-1.5339291354133633
204,0.967257470703125,-19.70906806640625,2.4851813232421875,3.1908396946564888,0.6717557251908397,0.44274809160305345,2720,167022,-78.85207370848335,-1.5451778123352797
205,1.0007762939453124,-19.531897143554687,2.5522189697265625,-0.6946564885496184,2.145038167938931,-0.04580152671755725,2736,167043,-78.9404358924777,-1.5282989033420773
206,1.149216796875,-19.52232033691406,2.6623522460937497,-7.129770992366412,1.4809160305343512,0.4122137404580153,2640,167064,-79.1530419986982,-1.5340177691399988
207,0.9002198242187499,-19.551050756835938,2.6575638427734374,-3.33587786259542,2.122137404580153,0.08396946564885496,2672,167085,-79.28381867582316,-1.511909994400864
208,0.8762778076171874,-19.47922470703125,2.39420166015625,0.7404580152671756,1.717557251908397,-0.2748091603053435,2704,167106,-79.34276148247406,-1.4974547867965382
209,0.7709329345703124,-19.55583916015625,2.4851813232421875,0.2748091603053435,2.1068702290076335,0.05343511450381679,2672,167127,-79.40540266416127,-1.468937499518604
210,0.7038952880859375,-19.685126049804687,2.1643583007812497,-3.5114503816793894,2.1526717557251906,-0.03816793893129771,2656,167148,-79.56407212663127,-1.435969510886486
211,0.8810662109374999,-19.196708911132813,2.7341782958984373,-10.358778625954198,1.7251908396946565,-0.015267175572519083,2736,167169,-79.82385253394754,-1.42377820317213
212,0.9337386474609375,-19.517531933593748,2.2074539306640624,-13.946564885496183,1.2061068702290076,0.2824427480916031,2768,167190,-80.1853399216467,-1.424914444281477
213,0.74699091796875,-19.699491259765622,1.7238251953125,-14.129770992366412,1.6259541984732824,-0.9694656488549618,2704,167211,-80.57240400768612,-1.4062203485830977
214,1.01514150390625,-19.59893479003906,2.01112939453125,-12.236641221374045,0.7175572519083969,0.17557251908396945,2720,167232,-80.89560890062285,-1.4223199615006001
215,0.689530078125,-19.584569580078124,1.867477294921875,-10.320610687022901,-0.08396946564885496,0.007633587786259542,2656,167253,-81.18115603398537,-1.4357482370155719
216,0.9959878906249999,-19.603723193359375,1.637633935546875,-4.648854961832061,-1.297709923664122,0.5572519083969466,2736,167274,-81.3577018761228,-1.4917080162837841
217,1.0199299072265624,-19.603723193359375,1.5945383056640625,-4.580152671755725,1.6641221374045803,0.4351145038167939,2768,167295,-81.5318050140254,-1.486995759056981
218,0.7852981445312499,-19.393033447265623,1.7956512451171873,-5.3893129770992365,1.984732824427481,0.3511450381679389,2720,167316,-81.70627935070617,-1.4625898910634634
219,0.852335791015625,-19.589357983398436,1.5753846923828123,-3.381679389312977,1.7709923664122138,-0.022900763358778626,2704,167337,-81.84979159701894,-1.4465584454510279
220,0.8810662109374999,-19.536685546875,1.6424223388671875,-1.9465648854961832,0.5038167938931297,0.26717557251908397,2720,167358,-81.95674651361061,-1.4587209904759821
221,0.74699091796875,-19.656395629882812,1.5514426757812498,-0.183206106870229,-1.0687022900763359,0.12213740458015267,2704,167379,-82.03112409763509,-1.4949322837589494
222,1.0103531005859374,-19.603723193359375,1.3838485595703125,0.366412213740458,0.1984732824427481,0.13740458015267176,2720,167400,-82.10220336327566,-1.5198097924165943
223,0.8571241943359375,-19.574992773437497,1.3407529296874998,1.9694656488549618,1.099236641221374,0.183206106870229,2720,167421,-82.14126271567538,-1.5168180713694568
224,0.9050082275390624,-19.335572607421874,1.6136919189453125,0.29770992366412213,2.0839694656488548,-0.10687022900763359,2704,167442,-82.19689684584525,-1.4970040707743617
225,0.9097966308593749,-19.546262353515623,1.5322890624999999,-3.145038167938931,1.7251908396946565,0.2366412213740458,2784,167463,-82.32803544028532,-1.4846958747429264
226,0.7900865478515624,-19.536685546875,1.2976572998046874,-3.8625954198473282,-0.2748091603053435,-0.022900763358778626,2720,167484,-82.48496507199106,-1.5068727413422642
227,0.833182177734375,-19.570204370117185,1.2689268798828124,-1.4351145038167938,-3.9083969465648853,0.007633587786259542,2672,167505,-82.5906034261238,-1.6058248331357463
228,1.01514150390625,-19.517531933593748,1.254561669921875,-2.7480916030534353,0.37404580152671757,-0.11450381679389313,2704,167526,-82.72179030779097,-1.6254355036707968
229,0.7996633544921875,-19.603723193359375,1.3646949462890625,-4.66412213740458,0.8778625954198473,-0.8091603053435115,2704,167547,-82.88369877571564,-1.6214653194315123
230,0.8954314208984374,-19.627665209960938,1.139639990234375,-0.29770992366412213,-1.5267175572519085,-0.5190839694656488,2736,167568,-82.96569105907894,-1.6726096013620746
231,0.8858546142578124,-19.498378320312497,1.2114660400390624,2.8931297709923665,-4.427480916030534,0.16030534351145037,2656,167589,-82.97573042702683,-1.7822006888039865
232,0.948103857421875,-19.594146386718748,1.1156979736328125,1.5038167938931297,-1.7786259541984732,0.061068702290076333,2720,167610,-83.02008878938533,-1.8384756540532814
233,0.9720458740234375,-19.507955126953124,0.7852981445312499,4.519083969465649,-0.1984732824427481,0.6106870229007634,2704,167631,-83.02058000861484,-1.8627963287474794
234,0.9576806640625,-19.46007109375,1.1731588134765625,3.9083969465648853,2.0839694656488548,0.3282442748091603,2704,167652,-83.01073508866969,-1.838898382889222
235,0.8954314208984374,-19.474436303710938,1.2401964599609374,0.8091603053435115,1.6488549618320612,-0.10687022900763359,2736,167673,-83.06099058932811,-1.820732615615151
236,0.7230489013671875,-19.603723193359375,1.5131354492187499,1.450381679389313,-3.854961832061069,-0.11450381679389313,2704,167694,-83.08164816256229,-1.9057738403102988
237,1.0678139404296874,-19.416975463867185,0.6943184814453125,2.595419847328244,-9.206106870229007,0.015267175572519083,2720,167715,-83.12564289036,-2.1200347918296396
238,0.8810662109374999,-19.608511596679687,1.1635820068359375,5.977099236641221,-12.267175572519085,-0.06870229007633588,2704,167736,-83.0722015911045,-2.3814569728053963
239,1.0582371337890624,-19.579781176757812,0.7948749511718749,6.519083969465649,-2.267175572519084,0.6030534351145038,2704,167757,-83.03009992491904,-2.442309090700582
240,0.9097966308593749,-19.436129077148436,1.149216796875,7.396946564885496,2.4122137404580153,0.4580152671755725,2704,167778,-82.94959201985915,-2.3973269117062164
241,0.9050082275390624,-19.474436303710938,1.20667763671875,0.5114503816793893,2.3053435114503817,0.04580152671755725,2640,167799,-83.00916181411039,-2.3550489367195966
242,0.9241618408203125,-19.536685546875,1.0630255371093749,0.2900763358778626,2.0916030534351147,-0.09923664122137404,2720,167820,-83.08071894153308,-2.3189888043312745
243,0.9097966308593749,-19.642030419921873,0.9337386474609375,5.320610687022901,1.7786259541984732,0.5648854961832062,2736,167841,-83.05517308301414,-2.288984766776005
244,0.9241618408203125,-19.589357983398436,1.0342951171875,8.221374045801527,2.49618320610687,0.7938931297709924,2816,167862,-82.96442687271306,-2.2457790889505373
245,0.8954314208984374,-19.469647900390623,1.120486376953125,8.045801526717558,2.519083969465649,0.7557251908396947,2720,167883,-82.87368048178446,-2.2015987431928035
246,0.8379705810546875,-19.507955126953124,1.2210428466796874,3.3435114503816794,2.2442748091603053,0.2824427480916031,2720,167904,-82.87576565178436,-2.1604765663378447
247,0.948103857421875,-19.665972436523436,1.16837041015625,1.3893129770992367,2.267175572519084,0.22137404580152673,2736,167925,-82.92165848887454,-2.1257138228800434
248,0.93852705078125,-19.627665209960938,1.0582371337890624,2.763358778625954,2.1526717557251906,0.030534351145038167,2736,167946,-82.94463244225065,-2.09357029228764
249,0.7996633544921875,-19.512743530273436,1.0773907470703123,4.709923664122138,2.572519083969466,0.4580152671755725,2720,167967,-82.92560233187709,-2.045620326392201
250,0.86191259765625,-19.527108740234375,1.005564697265625,7.343511450381679,2.6030534351145036,1.0610687022900764,2720,167988,-82.85700302204806,-2.001617362939789
251,0.948103857421875,-19.59893479003906,1.0630255371093749,9.236641221374045,2.7022900763358777,1.282442748091603,2704,168009,-82.74768047455433,-1.961281516123327
252,0.86191259765625,-19.67554924316406,1.1827356201171875,13.778625954198473,2.885496183206107,1.5190839694656488,2720,168030,-82.5403623121614,-1.9127483227507156
253,0.842758984375,-19.536685546875,1.3072341064453123,17.366412213740457,2.6717557251908395,1.3282442748091603,2672,168051,-82.25559319151422,-1.8687995666630985
254,0.833182177734375,-19.46007109375,1.5083470458984374,11.206106870229007,2.6412213740458017,0.7633587786259542,2784,168072,-82.09121714261587,-1.8259531748737214
255,0.8092401611328125,-19.589357983398436,1.4030021728515625,8.946564885496183,2.7022900763358777,0.5267175572519084,2720,168093,-81.98334119532863,-1.7810113356723238
256,0.9241618408203125,-19.838354956054687,1.0869675537109373,15.564885496183207,3.122137404580153,0.9541984732824428,2720,168114,-81.76062563811746,-1.734401200527126
257,0.86191259765625,-19.857508569335938,1.3215993164062498,29.206106870229007,3.4580152671755724,1.366412213740458,2704,168135,-81.24819833085355,-1.6781447543991148
258,0.86191259765625,-19.440917480468748,1.924938134765625,32.29007633587786,3.6412213740458017,1.2900763358778626,2704,168156,-80.64561064203671,-1.6201696743606149
259,0.8188169677734375,-19.48401311035156,2.1739351074218747,25.19083969465649,3.3587786259541983,0.9923664122137404,2720,168177,-80.18694167671525,-1.5664750113978734
260,0.833182177734375,-19.565415966796873,2.250549560546875,22.328244274809162,3.1908396946564888,0.4961832061068702,2704,168198,-79.79245320132908,-1.5179276469833476
261,0.8044517578125,-19.603723193359375,2.2457611572265623,26.908396946564885,3.3587786259541983,0.9923664122137404,2704,168219,-79.31212543378288,-1.4651374251397085
262,0.8475473876953125,-19.488801513671874,2.461239306640625,28.908396946564885,3.8625954198473282,1.1755725190839694,2736,168240,-78.7869926148466,-1.4057537564830291
263,0.8714894042968749,-19.56062756347656,2.6192566162109374,26.984732824427482,4.061068702290076,0.8549618320610687,2736,168261,-78.30337103313308,-1.3446316426292846
264,0.8762778076171874,-19.531897143554687,2.925714428710937,28.198473282442748,5.0458015267175576,0.9312977099236641,2720,168282,-77.78659726362835,-1.264706143536415
265,1.0007762939453124,-19.52232033691406,2.7820623291015623,29.748091603053435,7.916030534351145,0.8931297709923665,2704,168303,-77.25644106103553,-1.134605991635687
266,0.8092401611328125,-19.574992773437497,3.0980969482421874,33.79389312977099,6.435114503816794,0.6564885496183206,2704,168324,-76.6359639732847,-1.0262435745443799
267,1.2785036865234374,-19.31163059082031,3.1459809814453124,28.0381679389313,16.702290076335878,0.08396946564885496,2704,168345,-76.14116820118318,-0.7367562171817341
268,0.4261678955078125,-19.77131730957031,4.060566015625,22.48854961832061,28.633587786259543,-1.748091603053435,2720,168366,-75.72341383999176,-0.1569333091738386
269,1.1252747802734375,-19.551050756835938,3.356670727539062,38.43511450381679,10.641221374045802,0.26717557251908397,2704,168387,-75.02311112557587,0.0002683600206156017
270,0.086191259765625,-19.551050756835938,4.5585599609375,35.06106870229008,31.786259541984734,-2.427480916030534,2736,168408,-74.33859798500919,0.6495044112952744
271,0.55545478515625,-19.665972436523436,3.35188232421875,26.870229007633586,42.954198473282446,-3.5267175572519083,2704,168429,-73.90538500925378,1.48861431328625
272,0.584185205078125,-19.531897143554687,4.42448466796875,34.38931297709924,37.13740458015267,-3.0381679389312977,2704,168450,-73.26427359730667,2.189712665593849
273,-1.0438719238281249,-19.517531933593748,6.2009822998046875,46.99236641221374,12.549618320610687,-0.04580152671755725,2720,168471,-72.279370181096,2.4625497944023276
274,0.7852981445312499,-19.32599580078125,5.176263989257812,44.99236641221374,4.519083969465649,1.3511450381679388,2704,168492,-71.40795721681818,2.4613465332782973
275,0.814028564453125,-19.431340673828124,5.257666845703125,47.29007633587786,5.297709923664122,1.1450381679389312,2704,168513,-70.50376100690697,2.474832691328712
276,0.7996633544921875,-19.033903198242186,5.942408520507812,43.030534351145036,5.862595419847328,0.7709923664122137,2704,168534,-69.6613488001939,2.50005755286087
277,0.9193734375,-19.105729248046874,6.282385156249999,35.55725190839695,7.763358778625954,0.4122137404580153,2704,168555,-68.97231347267312,2.557480197690797
278,0.7661445312499999,-19.21107412109375,5.7700260009765625,31.778625954198475,34.045801526717554,-5.366412213740458,2640,168576,-68.40451137765959,3.1632464535886395
279,0.009576806640625,-19.033903198242186,5.137956762695312,44.541984732824424,57.091603053435115,-12.396946564885496,2736,168597,-67.61762277615533,4.274370077541153
280,-0.16280571289062498,-19.450494287109375,5.185840795898438,51.81679389312977,33.41984732824427,-5.99236641221374,2736,168618,-66.70030503483554,4.885930796682412
281,0.8906430175781249,-18.871097485351562,7.144297753906249,49.57251908396947,8.80916030534351,1.8625954198473282,2704,168639,-65.73137909670551,4.918958057587955
282,0.603338818359375,-18.650830932617186,7.556100439453124,44.32824427480916,14.564885496183207,-0.5114503816793893,2704,168660,-64.86338461333553,5.085977611994567
283,0.8283937744140625,-18.794483032226562,7.781155395507812,44.30534351145038,10.67175572519084,0.4961832061068702,2704,168681,-64.0045093910609,5.157242063348721
284,0.612915625,-18.631677319335935,7.905653881835937,45.18320610687023,7.793893129770993,1.2900763358778626,2704,168702,-63.13470641896312,5.179804281254452
285,0.59376201171875,-18.29170068359375,8.441955053710936,32.099236641221374,7.885496183206107,0.5648854961832062,2784,168723,-62.51592621226562,5.204727621403134
286,0.5410895751953124,-18.406622363281247,8.398859423828124,21.870229007633586,10.82442748091603,-1.2061068702290076,2768,168744,-62.124978338190395,5.2927608448297025
287,0.689530078125,-19.091364038085935,7.939172705078125,31.12213740458015,16.862595419847327,-2.595419847328244,2720,168765,-61.59038402785175,5.495737129798336
288,0.6943184814453125,-18.559851269531247,8.499415893554687,40.6793893129771,11.618320610687023,-0.20610687022900764,2672,168786,-60.82928975284112,5.585966616390204
289,0.603338818359375,-18.665196142578125,8.461108666992187,49.93129770992366,11.129770992366412,1.1984732824427482,2736,168807,-59.89741318929756,5.669571242930885
290,0.5793968017578125,-18.21508623046875,9.1554271484375,57.20610687022901,8.717557251908397,2.83206106870229,2704,168828,-58.788454840428585,5.703028360248499
291,0.55545478515625,-18.057068920898438,9.782707983398437,50.74045801526717,8.183206106870228,2.954198473282443,2704,168849,-57.79950044526404,5.72639233741642
292,0.5219359619140624,-18.1959326171875,9.686939916992188,57.31297709923664,8.038167938931299,4.404580152671755,2720,168870,-56.703420819166766,5.748281905783562
293,0.3399766357421875,-17.76018791503906,10.031704956054687,60.98473282442748,4.038167938931298,6.2748091603053435,2720,168891,-55.52509464886413,5.697323942346561
294,0.5602431884765625,-17.458518505859374,10.903194360351561,52.80916030534351,1.5725190839694656,5.603053435114504,2720,168912,-54.48806817389454,5.584557956407079
295,0.8906430175781249,-16.91264052734375,12.339715356445312,34.541984732824424,-3.4580152671755724,3.2977099236641223,2720,168933,-53.765131778427126,5.352981008449295
296,0.44053310546874996,-17.48724892578125,11.099518896484375,25.549618320610687,3.2977099236641223,1.1755725190839694,2736,168954,-53.31593516399735,5.289419385729622
297,0.4261678955078125,-17.348385229492187,11.252747802734374,23.396946564885496,2.877862595419847,1.5114503816793894,2704,168975,-52.90873125604797,5.219244054881933
298,0.4213794921875,-17.228675146484374,11.554417211914062,19.374045801526716,2.068702290076336,2.183206106870229,2704,168996,-52.57488285661424,5.134159412568999
299,0.44053310546874996,-17.444153295898438,11.233594189453123,20.31297709923664,-0.06870229007633588,3.4427480916030535,2736,169017,-52.249733881572425,5.005735624107447
300,0.373495458984375,-17.176002709960937,11.573570825195311,23.358778625954198,-0.3053435114503817,3.5267175572519083,2768,169038,-51.84455630001177,4.878674523203503
301,0.33518823242187495,-17.171214306640625,11.6837041015625,23.129770992366414,2.801526717557252,1.7557251908396947,2704,169059,-51.44700837089208,4.820264448294546
302,0.3447650390625,-17.18079111328125,11.81777939453125,24.106870229007633,3.0839694656488548,1.7251908396946565,2656,169080,-51.03150731141416,4.768383246320952
303,0.37828386230468747,-16.984466577148435,11.994950317382811,25.442748091603054,1.1984732824427482,2.9160305343511452,2768,169101,-50.582647232110105,4.676835044755621
304,0.33518823242187495,-16.936582543945313,12.191274853515624,24.946564885496183,2.4656488549618323,2.236641221374046,2720,169122,-50.142652804928794,4.6156369649299736
305,0.32082302246093747,-16.984466577148435,12.095506787109374,28.564885496183205,3.2519083969465647,1.9389312977099236,2640,169143,-49.642802181756075,4.57261849652419
306,0.26815058593749996,-16.888698510742188,12.248735693359373,33.045801526717554,1.465648854961832,4.442748091603053,2672,169164,-49.050824341218394,4.496601536834512
307,0.26815058593749996,-16.63012473144531,12.646173168945312,35.05343511450382,-1.297709923664122,6.67175572519084,2736,169185,-48.403393644193855,4.365255706639239
308,0.354341845703125,-16.64927834472656,12.650961572265624,36.19847328244275,-1.8778625954198473,6.770992366412214,2704,169206,-47.74577315050417,4.219887680969309
309,0.258573779296875,-16.18959162597656,13.110648291015623,37.717557251908396,-0.1984732824427481,5.633587786259542,2656,169227,-47.03460575835462,4.117182912102237
310,0.277727392578125,-15.99326708984375,13.488932153320311,32.717557251908396,2.351145038167939,2.8702290076335877,2736,169248,-46.41769182362678,4.0680154492663325
311,0.1005564697265625,-16.213533642578124,13.441048120117186,30.450381679389313,3.145038167938931,1.3206106870229009,2720,169269,-45.869493297414344,4.0459086980349905
312,0.0718260498046875,-15.935806249999999,13.536816186523437,31.31297709923664,3.801526717557252,1.0305343511450382,2720,169290,-45.30075154510226,4.03928958080993
313,0.1580173095703125,-15.95495986328125,13.709198706054687,33.89312977099237,3.801526717557252,2.0229007633587788,2720,169311,-44.68380366335795,4.028131430697166
314,0.201112939453125,-16.021997509765622,13.575123413085937,39.76335877862596,2.366412213740458,3.351145038167939,2736,169332,-43.96631865770854,3.985295544317967
315,0.17238251953125,-15.638925244140625,14.211981054687499,43.99236641221374,-2.1374045801526718,6.297709923664122,2656,169353,-43.13636520320165,3.852254291383296
316,0.076614453125,-15.318102221679686,14.331691137695312,44.6793893129771,-1.2213740458015268,6.6106870229007635,2720,169374,-42.29224517218193,3.7458881440208396
317,0.086191259765625,-15.030798022460937,14.872780712890624,39.770992366412216,1.8931297709923665,2.877862595419847,2720,169395,-41.53396846801725,3.7052601063445136
318,0.0430956298828125,-15.059528442382812,14.839261889648437,36.48854961832061,0.1297709923664122,3.854961832061069,2736,169416,-40.86079663789542,3.631489795541682
319,0.13407529296874998,-14.944606762695312,14.954183569335937,36.19083969465649,-0.44274809160305345,5.763358778625954,2656,169437,-40.19840617888162,3.5424812144835287
320,0.105344873046875,-14.585476513671875,15.365986254882811,33.93893129770992,1.3206106870229009,4.564885496183206,2736,169458,-39.56612001658553,3.493111895125928
321,-0.033518823242187495,-14.595053320312498,15.409081884765625,32.10687022900763,2.969465648854962,1.8778625954198473,2656,169479,-38.98295653610083,3.4861709959128477
322,0.0383072265625,-14.585476513671875,15.480907934570311,31.748091603053435,3.4885496183206106,1.3893129770992367,2704,169500,-38.41580432154807,3.486178096073255
323,-0.023942016601562498,-14.403517187499999,15.600618017578125,33.63358778625954,3.7786259541984735,2.1068702290076335,2672,169521,-37.8096136532597,3.495510772773106
324,-0.033518823242187495,-14.211981054687499,15.744270117187499,34.86259541984733,1.8244274809160306,3.877862595419847,2720,169542,-37.1773855981841,3.4649582027726495
325,-0.047884033203124995,-14.240711474609375,15.86398020019531,36.14503816793893,-1.3740458015267176,6.480916030534351,2720,169563,-36.52824410632639,3.3699550840412997
326,0.08140285644531249,-13.895946435546874,16.0507279296875,39.229007633587784,-1.6793893129770991,7.419847328244275,2672,169584,-35.808034951062616,3.263600401834539
327,-0.0526724365234375,-13.709198706054687,16.2422640625,37.778625954198475,-1.0610687022900764,6.870229007633588,2704,169605,-35.11770743359461,3.1793313785858683
328,0.0383072265625,-13.417106103515625,16.56787548828125,34.44274809160305,-2.7557251908396947,8.396946564885496,2704,169626,-34.48655098112105,3.0569729111421164
329,-0.047884033203124995,-13.129801904296874,16.95094775390625,30.297709923664122,-1.748091603053435,5.213740458015267,2736,169647,-33.928503360235254,2.96241686122548
330,-0.0383072265625,-13.378798876953125,16.735469604492188,28.908396946564885,1.534351145038168,1.9465648854961832,2672,169668,-33.42779469239076,2.936794245582416
331,-0.17238251953125,-13.067552661132812,16.927005737304686,28.580152671755727,2.717557251908397,1.366412213740458,2704,169689,-32.92441800592199,2.943222950145353
332,-0.11013327636718749,-13.072341064453123,16.998831787109374,28.374045801526716,2.9618320610687023,1.2595419847328244,2704,169710,-32.43320761077132,2.951198191642352
333,-0.1484405029296875,-12.612654345703124,17.37232724609375,26.389312977099237,4.236641221374046,-1.1526717557251909,2704,169731,-31.961059282265794,2.987287596830848
334,-0.2346317626953125,-12.464213842773436,17.401057666015625,19.65648854961832,8.549618320610687,-5.908396946564886,2720,169752,-31.629580938690726,3.1160537686255685
335,0.047884033203124995,-12.641384765624998,17.324443212890625,15.923664122137405,6.969465648854962,-4.534351145038168,2704,169773,-31.39163361414935,3.1946057599373945
336,-0.0430956298828125,-12.492944262695312,17.549498168945313,16.786259541984734,5.526717557251908,-1.7786259541984732,2704,169794,-31.127257444140255,3.24674593691232
337,-0.047884033203124995,-12.703634008789061,17.085023046874998,19.389312977099237,4.519083969465649,-0.1984732824427481,2720,169815,-30.838335996809374,3.2773910318986292
338,-0.1867477294921875,-12.650961572265624,17.214309936523435,25.99236641221374,0.5572519083969466,5.213740458015267,2736,169836,-30.412896842296785,3.2333283691781376
339,-0.047884033203124995,-12.373234179687499,17.501614135742187,31.015267175572518,0.45038167938931295,6.33587786259542,2704,169857,-29.87153315359214,3.180490689476868
340,-0.1005564697265625,-12.215216870117187,17.496825732421875,34.954198473282446,-0.648854961832061,6.9541984732824424,2784,169878,-29.253153017172952,3.108927350977442
341,-0.12449848632812499,-11.975796704101562,17.855955981445312,34.48854961832061,-0.42748091603053434,7.267175572519084,2736,169899,-28.63530220969426,3.044586707650308
342,-0.16280571289062498,-11.645396875,18.186355810546875,32.595419847328245,-0.07633587786259542,5.7251908396946565,2736,169920,-28.044441220055955,2.990762791679945
343,-0.2059013427734375,-11.602301245117188,18.109741357421875,30.427480916030536,-0.061068702290076333,3.4580152671755724,2704,169941,-27.510281207176224,2.9406607496490214
344,-0.38307226562499996,-11.544840405273437,18.2725470703125,35.51908396946565,-4.267175572519084,6.5038167938931295,2672,169962,-26.874797769074164,2.8143362927239948
345,-1.7429788085937499,-9.026140258789061,20.039467895507812,49.12977099236641,-2.3740458015267176,10.679389312977099,2704,169983,-25.811164453970033,2.7998776637336285
346,1.7812860351562498,-11.89439384765625,17.946935644531248,72.74809160305344,3.2290076335877864,8.740458015267176,2672,170004,-24.46847673827186,2.7157439843475313
347,-0.354341845703125,-10.127473022460936,19.15840168457031,71.09160305343511,3.2595419847328246,6.8320610687022905,2672,170025,-23.073276600290033,2.7472460815670834
348,0.22505495605468748,-9.658209497070311,19.426552270507813,52.16793893129771,7.687022900763359,2.786259541984733,2736,170046,-22.066894387220437,2.8386132496195873
349,0.143652099609375,-11.329362255859374,18.588581689453125,29.022900763358777,3.183206106870229,-0.09923664122137404,2656,170067,-21.655494349397284,2.839789663346413
350,0.047884033203124995,-9.639055883789062,19.163190087890623,28.358778625954198,-1.1908396946564885,7.244274809160306,2656,170088,-21.17280734659084,2.7559284041921424
351,-0.239420166015625,-9.758765966796874,19.340361010742185,33.12213740458015,0.5267175572519084,6.106870229007634,2720,170109,-20.603189885688426,2.7243138970437455
352,-0.4740519287109375,-9.514557397460937,19.46007109375,39.12213740458015,-0.2748091603053435,7.595419847328245,2720,170130,-19.907097806316703,2.689245862262327
353,-0.26815058593749996,-9.442731347656249,19.742586889648436,33.35114503816794,2.427480916030534,3.3053435114503817,2704,170151,-19.333818091979133,2.699458640942134
354,-0.277727392578125,-8.877699755859375,19.900604199218748,23.48854961832061,2.83206106870229,1.1374045801526718,2640,170172,-18.94458231514112,2.718357247367957
355,-0.143652099609375,-8.882488159179687,19.86229697265625,17.389312977099237,4.091603053435114,-0.9007633587786259,2736,170193,-18.689705791117696,2.755760831669023
356,-0.316034619140625,-9.054870678710937,19.737798486328124,20.450381679389313,2.5114503816793894,0.9236641221374046,2736,170214,-18.387916094297783,2.7690069193187328
357,-0.3112462158203125,-8.796296899414061,19.871873779296873,27.31297709923664,2.4732824427480917,1.633587786259542,2672,170235,-17.935588816033754,2.780937878240121
358,-0.39743747558593745,-8.389282617187499,20.101717138671873,29.099236641221374,4.015267175572519,0.6335877862595419,2720,170256,-17.431070887980937,2.8288594597920147
359,-0.3447650390625,-8.192958081054687,20.2645228515625,26.49618320610687,4.938931297709924,-1.7099236641221374,2720,170277,-16.977428250180672,2.8919983798846918
360,-0.469263525390625,-7.963114721679687,20.379444531249998,22.229007633587788,7.183206106870229,-4.549618320610687,2720,170298,-16.607260690370673,3.006561681261238
361,-0.33039982910156246,-8.154650854492187,20.298041674804686,19.83969465648855,5.122137404580153,-3.8473282442748094,2704,170319,-16.304566210479695,3.0691507424975213
362,-0.36391865234375,-8.06367119140625,20.144812768554686,21.625954198473284,2.618320610687023,-1.083969465648855,2656,170340,-15.969722686467943,3.0808695747343418
363,-0.4261678955078125,-7.6614453125,20.451270581054686,21.206106870229007,3.4732824427480917,-1.816793893129771,2720,170361,-15.624645172221522,3.1130907403612413
364,-0.37828386230468747,-7.8529814453124995,20.48000100097656,20.27480916030534,3.8244274809160306,-2.381679389312977,2704,170382,-15.314479466607404,3.149296684134385
365,-0.3495534423828125,-7.503428002929687,20.484789404296873,18.46564885496183,3.648854961832061,-2.9160305343511452,2736,170403,-15.030515058363056,3.179763582359565
366,-0.24899697265624998,-7.68059892578125,20.355502514648435,18.96946564885496,3.2595419847328246,-1.0534351145038168,2720,170424,-14.752966031915332,3.1963638910405434
367,-0.40222587890625,-7.522581616210937,20.446482177734374,23.045801526717558,2.633587786259542,1.1297709923664123,2672,170445,-14.387611328728601,3.2077896079709434
368,-0.3687070556640625,-7.302315063476562,20.609287890624998,27.18320610687023,3.2748091603053435,1.549618320610687,2720,170466,-13.93063539649028,3.230351239643198
369,-0.3687070556640625,-7.168239770507812,20.70984436035156,25.801526717557252,3.114503816793893,2.6717557251908395,2720,170487,-13.502869808334763,3.2491179614077748
370,-0.4261678955078125,-6.718129858398437,20.681113940429686,24.732824427480917,1.1984732824427482,3.282442748091603,2736,170508,-13.083732128654015,3.231255533868934
371,-0.37828386230468747,-6.861781958007812,20.796035620117188,20.938931297709924,1.9541984732824427,0.7633587786259542,2656,170529,-12.75634686932146,3.2266405787409083
372,-0.39264907226562495,-6.76122548828125,20.642806713867188,23.65648854961832,2.1526717557251906,1.0916030534351144,2720,170550,-12.377077235235204,3.2271213064522533
373,-0.3447650390625,-6.7037646484375,20.70984436035156,31.66412213740458,2.50381679389313,2.7480916030534353,2720,170571,-11.83662280114888,3.232255253232713
374,-0.45489831542968745,-6.37815322265625,21.01151376953125,36.85496183206107,1.6106870229007633,4.702290076335878,2720,170592,-11.179133973590584,3.224494068925173
375,-0.4261678955078125,-6.138733056640625,21.2605107421875,33.32824427480916,2.282442748091603,4.404580152671755,2816,170613,-10.591765579285788,3.22904255211709
376,-0.469263525390625,-5.827486840820312,21.351490405273438,22.52671755725191,2.015267175572519,3.1526717557251906,2704,170634,-10.22165023571885,3.2302285382514118
377,-0.40222587890625,-5.817910034179687,21.04982099609375,17.48854961832061,2.7099236641221376,2.366412213740458,2736,170655,-9.966305684223514,3.242497006073496
378,-0.38786066894531246,-5.7508723876953125,21.24614553222656,17.793893129770993,2.198473282442748,2.9923664122137406,2704,170676,-9.703697182089755,3.2430822555044596
379,-0.4070142822265625,-5.7317187744140625,21.131223852539062,21.328244274809162,1.633587786259542,5.351145038167939,2736,170697,-9.374207772155886,3.2331394618184044
380,-0.43574470214843747,-5.506663818359375,21.28445275878906,22.50381679389313,1.2748091603053435,4.984732824427481,2640,170718,-9.013702553845837,3.2174211635792536
381,-0.4261678955078125,-5.343858105468749,21.26529914550781,21.18320610687023,2.1297709923664123,2.5267175572519083,2704,170739,-8.679598967436304,3.2191729087918333
382,-0.49320554199218747,-5.233724829101562,21.447258471679685,18.27480916030534,3.0763358778625953,1.7786259541984732,2704,170760,-8.40418609432261,3.2436966683627118
383,-0.33039982910156246,-5.0757075195312495,21.346702001953123,14.213740458015268,2.3893129770992365,1.3282442748091603,2784,170781,-8.211086013890037,3.245248665573469
384,-0.45968671875,-5.104437939453125,21.28445275878906,14.198473282442748,2.49618320610687,0.6412213740458015,2720,170802,-8.024379364468867,3.255777893048448
385,-0.411802685546875,-5.013458276367187,21.346702001953123,14.679389312977099,3.1603053435114505,0.26717557251908397,2704,170823,-7.826127499593766,3.2772193790485575
386,-0.45489831542968745,-4.821922143554687,21.423316455078123,16.450381679389313,3.4427480916030535,-1.450381679389313,2704,170844,-7.5847490881774595,3.3062616249408174
387,-0.316034619140625,-4.678270043945313,21.581333764648438,17.977099236641223,4.717557251908397,-6.816793893129771,2672,170865,-7.307705233431943,3.353622363203216
388,-0.4644751220703125,-4.070142822265625,21.255722338867187,27.3206106870229,3.4732824427480917,-0.7251908396946565,2720,170886,-6.816093771687868,3.382619758496242
389,-0.565031591796875,-4.874594580078124,21.207838305664062,33.56488549618321,2.1908396946564888,2.6717557251908395,2720,170907,-6.247897197848286,3.3898024602087085
390,-0.5315127685546874,-3.81156904296875,21.480777294921875,34.6793893129771,2.549618320610687,3.648854961832061,2720,170928,-5.610475183512696,3.402390067557469
391,-0.49320554199218747,-3.9935283691406247,21.64837141113281,37.20610687022901,2.648854961832061,5.00763358778626,2640,170949,-4.941603798860451,3.414525124319445
392,-0.2442085693359375,-3.859453076171875,21.753716284179685,37.10687022900763,1.9770992366412214,4.770992366412214,2736,170970,-4.280322185279217,3.3995891274476993
393,-0.39743747558593745,-4.084508032226562,21.825542333984373,32.396946564885496,2.900763358778626,1.5572519083969465,2704,170991,-3.7399849989091254,3.4118036113053978
394,-0.2442085693359375,-3.7205893798828122,21.825542333984373,29.297709923664122,2.8931297709923665,2.931297709923664,2736,171012,-3.2557221947543042,3.4157470869283406
395,-0.4070142822265625,-3.21780703125,21.734562670898438,30.0,1.5267175572519085,6.083969465648855,2704,171033,-2.741637335079595,3.400077275588987
396,-0.38307226562499996,-3.0214824951171875,21.581333764648438,36.61832061068702,0.26717557251908397,11.427480916030534,2736,171054,-2.092596745390534,3.3577158582749504
397,-0.469263525390625,-2.710236279296875,21.906945190429685,43.93893129770992,0.15267175572519084,14.557251908396946,2720,171075,-1.287532811081804,3.31806052612718
398,-0.6560112548828124,-2.288856787109375,22.05059729003906,40.70229007633588,1.0381679389312977,10.664122137404581,2736,171096,-0.5426508578074369,3.306964032223566
399,-0.33039982910156246,-2.9544448486328125,22.112846533203125,31.984732824427482,2.068702290076336,5.938931297709924,2768,171117,-0.025753717282850058,3.300368335861399
400,-0.4836287353515625,-1.9632453613281249,22.18467258300781,23.328244274809162,2.618320610687023,2.6030534351145036,2672,171138,0.35371165358719675,3.3131259568055427
401,-0.38307226562499996,-2.04943662109375,21.940464013671875,19.519083969465647,2.717557251908397,2.83206106870229,2720,171159,0.6416110421808858,3.322709298660187
402,-0.3399766357421875,-1.675941162109375,21.945252416992187,19.022900763358777,2.1755725190839694,4.290076335877862,2736,171180,0.9329270121417871,3.3187280093950005
403,-0.5267243652343749,-1.7860744384765623,22.0266552734375,16.702290076335878,1.984732824427481,3.5877862595419847,2656,171201,1.165285644349034,3.320506765103695
404,-0.47884033203125,-1.455674609375,22.251710229492186,12.274809160305344,1.9541984732824427,1.900763358778626,2704,171222,1.319738032849665,3.318916911616133
405,-0.38786066894531246,-1.350329736328125,22.098481323242186,11.86259541984733,2.519083969465649,-1.5877862595419847,2720,171243,1.467541162776102,3.3244543192556706
406,-0.43574470214843747,-1.7812860351562498,21.95482922363281,12.603053435114504,2.381679389312977,-1.3969465648854962,2720,171264,1.6047915149175966,3.3296461118246845
407,-0.28730419921875,-1.848323681640625,21.940464013671875,13.65648854961832,2.816793893129771,-1.2061068702290076,2768,171285,1.7574386052400386,3.3359744376134177
408,-0.6607996582031249,-1.675941162109375,22.05059729003906,15.908396946564885,1.816793893129771,0.015267175572519083,2736,171306,1.9627572069541195,3.340875764855956
409,-0.4213794921875,-1.446097802734375,22.074539306640624,15.740458015267176,1.7709923664122138,0.8931297709923665,2720,171327,2.1724791426489483,3.332330157172605
410,-0.3591302490234375,-1.24498486328125,22.060174096679685,17.557251908396946,1.6564885496183206,1.7099236641221374,2784,171348,2.4257556019738353,3.3183978293654226
411,-0.44532150878906246,-1.0486603271484374,22.132000146484373,15.923664122137405,1.8549618320610688,0.916030534351145,2736,171369,2.6506942047782034,3.3132331985290615
412,-0.40222587890625,-0.8667010009765624,22.20382619628906,12.045801526717558,2.0610687022900764,0.5190839694656488,2704,171390,2.800876106067596,3.3101257122396683
413,-0.411802685546875,-1.0582371337890624,22.103269726562498,9.625954198473282,2.4122137404580153,0.648854961832061,2736,171411,2.8881396396601247,3.314889049586016
414,-0.45489831542968745,-0.9816226806640624,22.05059729003906,9.923664122137405,2.145038167938931,0.5954198473282443,2704,171432,2.9836269834918943,3.3163493742730576
415,-0.47884033203125,-0.967257470703125,22.055385693359373,11.213740458015268,1.8931297709923665,0.816793893129771,2816,171453,3.104510313419743,3.3138339681770197
416,-0.47884033203125,-0.8283937744140625,22.112846533203125,12.396946564885496,1.7404580152671756,1.816793893129771,2736,171474,3.254640922664156,3.3081687613766526
417,-0.4213794921875,-0.7038952880859375,22.074539306640624,11.34351145038168,2.1603053435114505,0.3893129770992366,2720,171495,3.386469905271888,3.308325016096723
418,-0.3687070556640625,-0.7996633544921875,22.146365356445312,10.541984732824428,1.702290076335878,1.0687022900763359,2736,171516,3.4943356772119203,3.2962554079419837
419,-0.4213794921875,-0.7326257080078125,22.155942163085935,11.229007633587786,1.4427480916030535,1.3740458015267176,2768,171537,3.617664001206807,3.281801470031094
420,-0.3591302490234375,-0.229843359375,22.103269726562498,12.099236641221374,1.3893129770992367,0.9236641221374046,2816,171558,3.782397507378113,3.2633735031418345
421,-0.3591302490234375,-0.5267243652343749,22.132000146484373,11.511450381679388,1.4427480916030535,0.10687022900763359,2704,171579,3.9163884547840575,3.2463853709398935
422,-0.316034619140625,-0.51714755859375,22.151153759765624,10.877862595419847,1.748091603053435,0.11450381679389313,2720,171600,4.035179063709128,3.2337768170364822
423,-0.3447650390625,-0.5027823486328125,22.079327709960936,9.893129770992367,1.7328244274809161,-0.16793893129770993,2704,171621,4.131986232777871,3.2226499988644144
424,-0.4644751220703125,-0.36391865234375,22.266075439453125,8.007633587786259,1.3893129770992367,-0.1984732824427481,2736,171642,4.195416331793287,3.210686448530774
425,-0.36391865234375,-0.430956298828125,22.088904516601563,6.030534351145038,1.8854961832061068,-0.06870229007633588,2640,171663,4.2132623330467665,3.204150096330088
426,-0.37828386230468747,-0.40222587890625,22.055385693359373,5.0458015267175576,1.6412213740458015,-0.732824427480916,2656,171684,4.211943841529548,3.193492455489989
427,-0.3447650390625,-0.43574470214843747,22.084116113281247,4.755725190839694,1.8931297709923665,-1.4122137404580153,2768,171705,4.20297050608053,3.186467685597407
428,-0.3016694091796875,-0.296881005859375,22.189460986328125,4.541984732824427,1.8625954198473282,-3.183206106870229,2704,171726,4.197054427960442,3.1766471048549985
429,-0.45489831542968745,-0.4836287353515625,22.05059729003906,4.419847328244275,2.2061068702290076,-2.2977099236641223,2672,171747,4.178944824179814,3.182146760403522
430,-0.3447650390625,-0.3399766357421875,22.213403002929685,4.229007633587786,2.3435114503816794,-2.0076335877862594,2704,171768,4.164862009966588,3.1845150626315406
431,-0.411802685546875,-0.44532150878906246,22.060174096679685,4.061068702290076,2.1908396946564888,-0.015267175572519083,2704,171789,4.1420124823510776,3.1872964901624035
432,-0.4165910888671875,-0.411802685546875,22.04580888671875,4.282442748091603,2.0,0.5190839694656488,2736,171810,4.125902367258403,3.1863581299763233
433,-0.3447650390625,-0.40222587890625,22.055385693359373,4.251908396946565,2.0763358778625953,0.4351145038167939,2736,171831,4.1099927544462656,3.183270229327254
434,-0.39743747558593745,-0.37828386230468747,22.0649625,4.106870229007634,2.0076335877862594,0.5725190839694656,2768,171852,4.092668524797071,3.181557067256061
435,-0.36391865234375,-0.4070142822265625,22.151153759765624,3.5877862595419847,1.7251908396946565,0.20610687022900764,2656,171873,4.063598646858878,3.1722515935303868
436,-0.5793968017578125,-0.22505495605468748,22.165518969726563,2.931297709923664,2.5419847328244276,2.5801526717557253,2720,171894,4.031018263165073,3.191065968798501
437,0.258573779296875,0.24899697265624998,22.088904516601563,1.7938931297709924,3.5267175572519083,5.343511450381679,2704,171915,4.0002329943573205,3.186411818437327
438,0.19632453613281248,-0.737414111328125,22.155942163085935,-4.9541984732824424,2.595419847328244,0.183206106870229,2656,171936,3.7801456041592343,3.1659492112780443
439,0.8044517578125,1.1635820068359375,22.27565224609375,2.198473282442748,0.9312977099236641,-0.6564885496183206,2720,171957,3.8095905052069243,3.0804875574726722
440,-0.5698199951171875,-1.0486603271484374,23.017854760742186,31.244274809160306,-20.977099236641223,-34.97709923664122,2720,171978,4.324235680559353,2.6155017227548063
441,-1.177947216796875,-0.45489831542968745,23.357831396484375,6.778625954198473,-2.66412213740458,-37.57251908396947,2720,171999,4.354940980632886,2.5660933116911937
442,-0.1388636962890625,-1.1156979736328125,22.270863842773437,4.473282442748092,2.015267175572519,-26.908396946564885,2720,172020,4.302543614976743,2.5633816364169717
443,0.19632453613281248,-1.7190367919921874,22.175095776367186,4.137404580152672,2.801526717557252,-19.946564885496183,2704,172041,4.21298525284654,2.559654807965672
444,-0.4740519287109375,-1.5658078857421873,22.141576953125,4.015267175572519,2.6106870229007635,-11.198473282442748,2816,172062,4.13045758093481,2.5866589046420994
445,-0.5123591552734374,-1.0342951171875,22.146365356445312,3.7709923664122136,2.282442748091603,0.10687022900763359,2704,172083,4.0719769558993715,2.60837573260299
446,-0.2825157958984375,-0.45010991210937495,22.036232080078122,3.7404580152671754,2.8091603053435112,0.4961832061068702,2704,172104,4.044112937804617,2.6287080944641183
447,-0.354341845703125,-0.4740519287109375,22.18467258300781,3.9389312977099236,2.6946564885496183,0.5419847328244275,2672,172125,4.019811178195524,2.649887220927175
448,-0.22505495605468748,-0.33518823242187495,22.069750903320312,3.7786259541984735,2.50381679389313,0.6412213740458015,2704,172146,3.9997766197001736,2.660101679007069
449,-0.26336218261718747,-0.44532150878906246,22.10805812988281,3.6259541984732824,2.4732824427480917,0.5038167938931297,2704,172167,3.971324225317157,2.6714471007318057
450,-0.2154781494140625,-0.3687070556640625,22.132000146484373,3.6793893129770994,2.2595419847328246,0.48091603053435117,2736,172188,3.948531009712125,2.67567431829219
451,-0.33039982910156246,-0.36391865234375,22.12721174316406,3.7099236641221376,2.3893129770992365,0.3893129770992366,2736,172209,3.92706583735827,2.6884399284968765
452,-0.277727392578125,-0.3687070556640625,22.060174096679685,3.83206106870229,2.5267175572519083,0.32061068702290074,2640,172230,3.9082376350606673,2.7010947483511645
453,-0.2442085693359375,-0.38786066894531246,22.232556616210935,3.732824427480916,2.404580152671756,0.5572519083969466,2720,172251,3.886905232243051,2.7091437466992505
454,-0.19632453613281248,-0.47884033203125,22.112846533203125,3.8244274809160306,2.572519083969466,0.183206106870229,2704,172272,3.8630636128228577,2.7180744479447845
455,-0.2346317626953125,-0.4165910888671875,22.12242333984375,3.564885496183206,2.427480916030534,0.48854961832061067,2720,172293,3.837591304311241,2.7258215566474475
456,-0.3016694091796875,-0.4165910888671875,22.069750903320312,4.068702290076335,2.5419847328244276,0.48091603053435117,2784,172314,3.8229455088620976,2.73927882221414
457,-0.354341845703125,-0.4070142822265625,22.194249389648437,3.9083969465648853,2.717557251908397,0.35877862595419846,2704,172335,3.8059091299100976,2.758711037445346
458,-0.28730419921875,-0.3687070556640625,22.179884179687498,3.763358778625954,2.3206106870229006,0.46564885496183206,2784,172356,3.7881935104146462,2.7661355705646407
459,-0.2537853759765625,-0.39264907226562495,22.160730566406247,3.687022900763359,2.6793893129770994,0.366412213740458,2672,172377,3.768007091977512,2.779075119416966
460,-0.17238251953125,-0.430956298828125,22.088904516601563,3.931297709923664,2.4580152671755724,0.44274809160305345,2720,172398,3.7511989879509713,2.783020450306487
461,-0.2537853759765625,-0.3495534423828125,22.055385693359373,3.763358778625954,2.6259541984732824,0.3816793893129771,2656,172419,3.7354649589840436,2.794585682987103
462,-0.354341845703125,-0.33039982910156246,22.084116113281247,3.7099236641221376,2.50381679389313,0.42748091603053434,2704,172440,3.7199631574099827,2.8086052144668305
463,-0.229843359375,-0.3495534423828125,22.28044064941406,3.6717557251908395,2.4732824427480917,0.0916030534351145,2672,172461,3.703152058036386,2.815152568670965
464,-0.3064578125,-0.430956298828125,22.141576953125,3.6412213740458017,2.3969465648854964,0.4351145038167939,2784,172482,3.6817244481867357,2.8240350855193403
465,-0.258573779296875,-0.45968671875,22.055385693359373,3.732824427480916,2.5267175572519083,0.37404580152671757,2736,172503,3.661031335810977,2.8329852282913555
466,-0.26815058593749996,-0.469263525390625,22.060174096679685,3.564885496183206,2.6946564885496183,0.549618320610687,2736,172524,3.6368038377132095,2.845706798719458
467,-0.37828386230468747,-0.37828386230468747,22.175095776367186,4.0,2.2290076335877864,0.4198473282442748,2720,172545,3.6268415394566205,2.8542090184671927
468,-0.3687070556640625,-0.32561142578124996,22.088904516601563,3.7022900763358777,2.7786259541984735,0.37404580152671757,2640,172566,3.613607177953115,2.873432681174171
469,-0.2154781494140625,-0.33039982910156246,22.0649625,3.900763358778626,2.381679389312977,0.6793893129770993,2704,172587,3.604455134295459,2.876167961357827
470,-0.277727392578125,-0.39264907226562495,21.988348046875,3.83206106870229,2.5419847328244276,0.3053435114503817,2720,172608,3.590769244630086,2.885429244106876
471,-0.2346317626953125,-0.5602431884765625,22.03144367675781,3.66412213740458,2.3206106870229006,0.7175572519083969,2736,172629,3.565227992747927,2.887678261531122
472,-0.3112462158203125,-0.4261678955078125,22.074539306640624,3.687022900763359,2.6717557251908395,0.3816793893129771,2736,172650,3.5476822297661306,2.901062510223976
473,-0.36391865234375,-0.354341845703125,22.141576953125,3.9083969465648853,2.3893129770992365,0.2748091603053435,2720,172671,3.5388263451125854,2.911043467459297
474,-0.3591302490234375,-0.4165910888671875,22.20382619628906,4.862595419847328,1.5038167938931297,0.1984732824427481,2704,172692,3.5466247361273258,2.902300597174652
475,-0.2442085693359375,-0.4165910888671875,22.060174096679685,4.404580152671755,2.2900763358778624,0.1450381679389313,2736,172713,3.5447012515544496,2.9040669894768167
476,-0.2920926025390625,-0.603338818359375,22.036232080078122,4.083969465648855,1.984732824427481,-15.748091603053435,2704,172734,3.5264886727585085,2.9020141059304305
477,-0.047884033203124995,-0.430956298828125,21.883003173828122,4.106870229007634,3.854961832061069,-21.885496183206108,2720,172755,3.517913939980076,2.9258159221472533
478,-0.27293898925781246,-0.6512228515624999,22.084116113281247,4.351145038167939,1.9618320610687023,-18.27480916030534,2720,172776,3.503320922551248,2.921829677240921
479,-0.201112939453125,-0.181959326171875,22.213403002929685,4.435114503816794,2.16793893129771,-12.877862595419847,2720,172797,3.515142693995449,2.918383383168723
480,0.44053310546874996,-1.3551181396484375,22.21819140625,4.702290076335878,2.2290076335877864,-23.541984732824428,2720,172818,3.4718084681477737,2.8832130550963964
481,-0.93852705078125,-0.411802685546875,22.093692919921875,4.106870229007634,2.6793893129770994,-11.129770992366412,2720,172839,3.4655355262244414,2.9293307586057407
482,-0.948103857421875,-0.33518823242187495,22.017078466796875,3.5114503816793894,1.3282442748091603,0.9465648854961832,2704,172860,3.451046381237508,2.9473888836517506
483,-0.9864110839843749,0.105344873046875,22.347478295898437,3.4122137404580153,0.15267175572519084,10.290076335877863,2720,172881,3.457650560035281,2.9421300946843894
484,-1.0199299072265624,-1.0630255371093749,22.112846533203125,3.2595419847328246,-2.3206106870229006,12.32824427480916,2656,172902,3.400533975815754,2.8882851080497294
485,-0.32561142578124996,-0.5746083984375,22.155942163085935,3.0381679389312977,-3.6412213740458017,19.290076335877863,2704,172923,3.365336440400575,2.7724169719177616
486,0.584185205078125,0.277727392578125,21.57175695800781,3.3435114503816794,-2.33587786259542,12.564885496183207,2720,172944,3.3815915484745154,2.6378738544002953
487,2.29843359375,-2.7820623291015623,21.6435830078125,3.3206106870229006,0.8244274809160306,18.15267175572519,2720,172965,3.235805380731463,2.481829357777613
488,-0.38786066894531246,-0.49320554199218747,21.983559643554685,3.9160305343511452,0.5190839694656488,2.6793893129770994,2704,172986,3.225976648973922,2.463085971766375
489,0.0143652099609375,-0.4070142822265625,22.103269726562498,3.7557251908396947,-3.099236641221374,3.4122137404580153,2720,173007,3.2176511929800853,2.349297342758582
490,0.2154781494140625,-0.44532150878906246,22.136788549804685,3.9236641221374047,-3.1603053435114505,4.916030534351145,2720,173028,3.2109981225532565,2.2261206478359887
491,0.076614453125,0.05746083984375,22.112846533203125,3.8473282442748094,-3.33587786259542,6.923664122137405,2720,173049,3.2289338618424708,2.1089756401905824
492,0.4213794921875,0.7709329345703124,21.97398283691406,4.022900763358779,-10.595419847328245,9.778625954198473,2720,173070,3.2873331830988097,1.826784175408726
493,1.0726023437499999,-1.01514150390625,22.05059729003906,3.8702290076335877,-10.610687022900763,10.83969465648855,2720,173091,3.248518634066208,1.5162427694712792
494,0.7757213378906249,-0.4070142822265625,22.227768212890624,4.740458015267175,-12.969465648854962,18.244274809160306,2704,173112,3.260126288217488,1.1790382067428051
495,-0.05746083984375,0.507570751953125,22.27565224609375,3.946564885496183,-8.740458015267176,13.923664122137405,2720,173133,3.3022502667069196,0.9785339732014574
496,1.0342951171875,-0.737414111328125,21.82075393066406,4.312977099236641,-11.778625954198473,10.572519083969466,2704,173154,3.2862558039405148,0.6623147677985939
497,0.0526724365234375,-0.6368576416015624,22.151153759765624,4.305343511450381,-11.770992366412214,6.091603053435114,2736,173175,3.2761980378938893,0.40409774842708596
498,0.842758984375,-0.7757213378906249,21.906945190429685,4.595419847328245,-10.389312977099237,2.854961832061069,2704,173196,3.2646880807632415,0.13816972012985423
499,0.4261678955078125,-0.316034619140625,22.175095776367186,4.282442748091603,-6.809160305343512,2.3053435114503817,2656,173217,3.2711967578943097,-0.02674380991808526
500,2.422932080078125,-0.6272808349609375,22.093692919921875,3.7938931297709924,-8.045801526717558,2.2442748091603053,2720,173238,3.251325216585726,-0.31690957070758186
501,0.6943184814453125,-0.22505495605468748,22.486341992187498,4.267175572519084,-11.34351145038168,-1.1450381679389312,2656,173259,3.2626486517794406,-0.5793906643147138
502,0.2920926025390625,-0.51714755859375,22.117634936523437,3.7480916030534353,-13.65648854961832,2.427480916030534,2736,173280,3.2477428483991004,-0.863981701325143
503,1.2737152832031249,-0.2537853759765625,21.978771240234373,4.412213740458015,-13.396946564885496,8.549618320610687,2720,173301,3.260360233149001,-1.1887408027175776
504,1.149216796875,-0.3064578125,21.9500408203125,3.7938931297709924,-11.793893129770993,2.9770992366412212,2672,173322,3.2572335670016757,-1.4676193283529197
505,0.852335791015625,-0.5027823486328125,22.730550561523437,4.4961832061068705,-15.564885496183207,1.0687022900763359,2768,173343,3.259277704386791,-1.801530487760712
506,0.6751648681640625,-0.1580173095703125,22.50549560546875,5.0458015267175576,-27.625954198473284,2.183206106870229,2736,173364,3.289889087615051,-2.3684083288606335
507,1.1540052001953125,0.01915361328125,22.27565224609375,6.190839694656488,-26.52671755725191,10.916030534351146,2704,173385,3.3524840965877716,-2.926271895283562
508,2.29843359375,-0.469263525390625,22.3714203125,6.473282442748092,-35.93893129770992,11.297709923664122,2720,173406,3.3946213349218373,-3.724663464788066
509,2.27927998046875,-0.38307226562499996,22.03144367675781,5.763358778625954,-41.93893129770992,7.526717557251908,2736,173427,3.4254162040904936,-4.63138699429196
510,2.6048914062499997,-0.32082302246093747,21.423316455078123,5.206106870229007,-36.20610687022901,3.3893129770992365,2720,173448,3.446890282251151,-5.422518410859279
511,2.7629087158203123,-0.4213794921875,21.930887207031247,5.290076335877862,-27.61832061068702,3.351145038167939,2720,173469,3.464807364332515,-6.02603562682501
512,2.8203695556640622,-0.45489831542968745,21.945252416992187,5.145038167938932,-29.480916030534353,2.801526717557252,2768,173490,3.477646071324481,-6.658669447495117
513,3.81156904296875,-0.488417138671875,21.404162841796875,5.572519083969466,-28.549618320610687,2.816793893129771,2704,173511,3.496631720254932,-7.314939009507698
514,2.920926025390625,-0.15322890625,22.036232080078122,4.541984732824427,-26.938931297709924,1.8778625954198473,2720,173532,3.512205137756379,-7.874051848271363
515,3.0933085449218747,-0.19632453613281248,22.208614599609373,5.267175572519084,-32.94656488549618,2.5419847328244276,2640,173553,3.540229858558146,-8.553192620690432
516,3.9552211425781247,-0.1388636962890625,21.753716284179685,5.732824427480916,-34.0763358778626,1.7938931297709924,2736,173574,3.5800919959515274,-9.289512581049653
517,4.592078784179687,0.0383072265625,21.485565698242187,5.854961832061068,-33.7557251908397,1.6564885496183206,2736,173595,3.631028353890071,-10.039699419410812
518,4.0988732421875,-0.2920926025390625,22.251710229492186,7.061068702290076,-36.38931297709924,5.648854961832061,2720,173616,3.6886832989077676,-10.796523135820589
519,4.61602080078125,-0.1292868896484375,21.830330737304685,6.351145038167939,-47.94656488549618,5.1603053435114505,2784,173637,3.738829762365328,-11.806115293191596
520,5.257666845703125,-0.0718260498046875,20.915745703124998,5.984732824427481,-41.458015267175576,4.038167938931298,2672,173658,3.7832838344216198,-12.705403201997225
521,5.45877978515625,-0.39264907226562495,21.097705029296876,6.015267175572519,-26.541984732824428,3.6793893129770994,2784,173679,3.810088200101269,-13.28761049245716
522,6.191405493164062,-0.2537853759765625,21.001936962890625,4.969465648854962,-22.206106870229007,-0.6870229007633588,2768,173700,3.8223115798674314,-13.80734934084737
523,5.722141967773437,-0.1388636962890625,21.097705029296876,5.244274809160306,-17.69465648854962,1.3282442748091603,2720,173721,3.8462502922842865,-14.198847376037417
524,7.019799267578125,-0.36391865234375,20.5709806640625,5.564885496183206,-13.335877862595419,0.9847328244274809,2736,173742,3.8635804946672465,-14.566109751505307
525,5.453991381835937,-0.1197100830078125,22.361843505859373,5.603053435114504,-16.099236641221374,2.427480916030534,2768,173763,3.8954853312999784,-14.88023963800896
526,5.68862314453125,-0.15322890625,21.351490405273438,6.404580152671755,-23.96946564885496,4.633587786259542,2768,173784,3.9411583656260514,-15.37429151306901
527,5.6215854980468745,-0.009576806640625,21.212626708984374,6.183206106870229,-20.27480916030534,4.816793893129771,2736,173805,3.9890682366464603,-15.780917852454547
528,5.702988354492187,-0.15322890625,21.308394775390624,5.435114503816794,-14.587786259541986,4.022900763358779,2704,173826,4.012901378549576,-16.065178618074334
529,6.110002636718749,-0.24899697265624998,21.404162841796875,6.366412213740458,-18.389312977099237,4.977099236641221,2704,173847,4.050334153950377,-16.440943674601055
530,6.7037646484375,-0.12449848632812499,20.834342846679686,6.480916030534351,-22.244274809160306,4.3893129770992365,2720,173868,4.095857227784084,-16.926633289289956
531,6.823474731445312,-0.1388636962890625,20.963629736328123,5.549618320610687,-21.374045801526716,2.7709923664122136,2704,173889,4.120560760909712,-17.38856323387517
532,6.6893994384765625,-0.0430956298828125,21.078551416015625,4.9541984732824424,-26.49618320610687,1.3129770992366412,2720,173910,4.137764100216622,-17.93822542494799
533,6.947973217773437,-0.181959326171875,20.657171923828123,5.511450381679389,-25.419847328244273,3.0916030534351147,2720,173931,4.158340895841967,-18.474391941886804
534,7.335833886718749,0.0143652099609375,20.566192260742188,7.786259541984733,-21.106870229007633,8.076335877862595,2720,173952,4.236215705867673,-18.931903479709074
535,7.68059892578125,-0.028730419921875,20.65238352050781,7.870229007633588,-25.137404580152673,8.977099236641221,2736,173973,4.311866573239767,-19.47859509302418
536,7.900865478515625,-0.01915361328125,20.829554443359374,7.961832061068702,-28.00763358778626,7.862595419847328,2704,173994,4.388430030403458,-20.080865223391722
537,7.560888842773437,-0.44532150878906246,20.503943017578123,5.549618320610687,-28.427480916030536,4.267175572519084,2720,174015,4.389988549145314,-20.669029766453107
538,8.2360537109375,-0.2154781494140625,20.087351928710937,7.290076335877862,-23.34351145038168,5.793893129770993,2720,174036,4.439926719882941,-21.1819197725422
539,8.413224633789062,-0.3112462158203125,19.982007055664063,5.679389312977099,-12.893129770992367,3.9770992366412212,2736,174057,4.45016230837154,-21.480233086853428
540,8.197746484375,-0.2442085693359375,20.6475951171875,4.137404580152672,-14.106870229007633,0.6030534351145038,2704,174078,4.432754211585221,-21.77401310160126
541,8.346186987304687,-0.2154781494140625,20.207062011718747,4.213740458015267,-15.366412213740459,0.0916030534351145,2704,174099,4.418598890065351,-22.103595598397085
542,8.757989672851561,-0.1149216796875,19.895815795898436,4.534351145038168,-4.885496183206107,0.3511450381679389,2768,174120,4.41692492542047,-22.23723487296773
543,8.221688500976562,-0.01915361328125,20.61407629394531,5.137404580152672,-9.320610687022901,0.06870229007633588,2720,174141,4.433249483545125,-22.419188565370185
544,8.614337573242187,-0.12449848632812499,20.393809741210937,5.312977099236641,-18.267175572519083,0.4198473282442748,2768,174162,4.446930156321395,-22.80471916643632
545,8.805873706054687,-0.0047884033203125,19.843143359375,4.7251908396946565,-16.061068702290076,0.2900763358778626,2704,174183,4.454959456648852,-23.157769762854503
546,9.112331518554686,-0.09576806640624999,19.82877814941406,4.687022900763359,-13.259541984732824,0.030534351145038167,2720,174204,4.456784754571514,-23.46111438662145
547,9.227253198242186,0.009576806640625,20.039467895507812,4.6106870229007635,-12.877862595419847,-0.5114503816793893,2720,174225,4.463084628281405,-23.751396381505774
548,8.643067993164061,0.19632453613281248,20.484789404296873,3.7022900763358777,-15.267175572519085,-2.2213740458015265,2704,174246,4.460998089986091,-24.04807112398962
549,9.169792358398437,-0.0143652099609375,20.144812768554686,4.351145038167939,-23.48854961832061,-1.3511450381679388,2720,174267,4.4605075439898405,-24.539998548401854
550,9.366116894531249,-0.1292868896484375,19.55583916015625,5.015267175572519,-24.908396946564885,-0.2366412213740458,2704,174288,4.46693586431035,-25.073638186418783
551,9.342174877929686,-0.1771709228515625,20.02031428222656,5.076335877862595,-24.00763358778626,0.42748091603053434,2672,174309,4.4719275581722595,-25.566533189253917
552,9.327809667968749,0.1388636962890625,20.140024365234375,5.770992366412214,-30.282442748091604,2.0916030534351147,2704,174330,4.509156891898489,-26.175427082148254
553,10.098742602539062,-0.033518823242187495,19.416975463867185,5.366412213740458,-32.725190839694655,1.0534351145038168,2768,174351,4.527436366700693,-26.87497987568929
554,10.237606298828124,-0.4836287353515625,19.354726220703125,6.656488549618321,-26.709923664122137,2.1755725190839694,2768,174372,4.545250416291264,-27.44455122300321
555,10.40041201171875,0.05746083984375,19.182343701171874,5.8320610687022905,-21.297709923664122,1.3053435114503817,2720,174393,4.577801812366391,-27.90328413809704
556,10.558429321289061,-0.1197100830078125,19.38824504394531,5.786259541984733,-24.0381679389313,1.4809160305343512,2736,174414,4.598251787387103,-28.41135036031872
557,10.496180078124999,-0.12449848632812499,19.206285717773437,5.740458015267175,-27.419847328244273,2.2595419847328246,2720,174435,4.616997457359322,-28.980543239333272
558,10.984597216796875,0.1005564697265625,18.569428076171874,5.221374045801527,-27.938931297709924,0.13740458015267176,2768,174456,4.638318644501744,-29.588030192923117
559,11.089942089843749,0.033518823242187495,18.90940471191406,4.938931297709924,-21.35114503816794,0.015267175572519083,2720,174477,4.649226726320872,-30.043488720262193
560,11.171344946289063,0.0047884033203125,18.895039501953125,5.175572519083969,-25.916030534351144,0.1450381679389313,2736,174498,4.663045873518939,-30.587829281695715
561,11.358092675781249,0.033518823242187495,18.60294689941406,4.740458015267175,-23.213740458015266,0.05343511450381679,2736,174519,4.669408292543653,-31.08193653816653
562,11.348515869140625,-0.009576806640625,18.85194387207031,5.366412213740458,-26.51145038167939,0.648854961832061,2720,174540,4.685878763817529,-31.626846395291135
563,11.506533178710937,-0.08140285644531249,18.75138740234375,5.6183206106870225,-32.94656488549618,0.48091603053435117,2768,174561,4.702811649931586,-32.30304079746181
564,11.875240234375,0.1149216796875,18.171990600585936,5.679389312977099,-37.51145038167939,0.22900763358778625,2784,174582,4.732884049398146,-33.092240579778334
565,12.114660400390624,0.11013327636718749,18.009184887695312,5.541984732824427,-33.42748091603053,0.0916030534351145,2672,174603,4.759288053145049,-33.796892653879745
566,12.224793676757812,0.26815058593749996,18.1959326171875,5.9465648854961835,-39.82442748091603,0.4580152671755725,2816,174624,4.803368552216408,-34.618381286084734
567,12.488155859374999,0.0383072265625,17.745822705078123,7.351145038167939,-40.954198473282446,2.0,2704,174645,4.861061386231016,-35.47154898780819
568,12.765883251953124,0.1484405029296875,17.520767749023438,7.419847328244275,-42.94656488549618,1.7938931297709924,2672,174666,4.926248879267803,-36.36749111932168
569,12.952630981445312,0.0430956298828125,17.132907080078123,8.557251908396946,-47.06106870229008,2.6564885496183206,2720,174687,5.006714543542915,-37.35044847907039
570,13.110648291015623,-0.181959326171875,17.439364892578123,6.450381679389313,-49.3587786259542,0.3511450381679389,2720,174708,5.027373255802828,-38.357918946311045
571,13.867216015624999,0.12449848632812499,16.10818876953125,5.99236641221374,-49.091603053435115,-0.37404580152671757,2720,174729,5.059005175432219,-39.4155388187858
572,13.982137695312499,0.0047884033203125,16.697162377929686,5.9465648854961835,-49.57251908396947,-0.3435114503816794,2720,174750,5.080534002319809,-40.446283920835754
573,14.101847778320312,0.0,16.17043801269531,6.137404580152672,-48.13740458015267,-0.2900763358778626,2704,174771,5.105231108532955,-41.44984393682114
574,14.475343237304687,0.1197100830078125,15.849614990234373,5.137404580152672,-39.63358778625954,0.030534351145038167,2704,174792,5.117509059639203,-42.28459472391867
575,14.322114331054687,0.22505495605468748,16.443377001953124,6.015267175572519,-52.16030534351145,-0.21374045801526717,2672,174813,5.154635857973749,-43.333423400348245
576,15.136142895507811,0.258573779296875,15.035586425781249,6.068702290076335,-51.786259541984734,-0.007633587786259542,2720,174834,5.196141920130676,-44.436250539557065
577,15.413870288085937,0.1388636962890625,14.585476513671875,5.580152671755725,-43.55725190839695,-0.06870229007633588,2832,174855,5.217968193016322,-45.37554280756283
578,15.389928271484374,0.201112939453125,14.700398193359375,5.374045801526718,-34.14503816793893,0.2748091603053435,2768,174876,5.239882734908898,-46.09693773072712
579,15.452177514648437,0.26336218261718747,14.733917016601561,5.625954198473282,-35.152671755725194,0.5572519083969466,2768,174897,5.271347765732821,-46.825610797217536
580,15.116989282226562,0.354341845703125,14.997279199218749,8.572519083969466,-31.702290076335878,2.9389312977099236,2736,174918,5.369412850814213,-47.44592705062243
581,16.883910107421872,-0.1005564697265625,12.904746948242186,8.541984732824428,-29.091603053435115,2.5419847328244276,2640,174939,5.428889607924024,-48.14786728294863
582,16.773776831054686,0.0143652099609375,13.038822241210937,9.206106870229007,-21.748091603053435,3.66412213740458,2704,174960,5.511035979686577,-48.67530277942153
583,15.959748266601562,0.21068974609375,14.092270971679687,8.206106870229007,-16.641221374045802,2.854961832061069,2704,174981,5.586827938379479,-49.01532698032122
584,15.897499023437499,0.4261678955078125,14.379575170898436,12.106870229007633,-10.244274809160306,5.969465648854962,2704,175002,5.758202365060865,-49.20299911730457
585,16.17043801269531,0.19632453613281248,13.94861887207031,4.977099236641221,-14.396946564885496,0.3282442748091603,2720,175023,5.761594530224649,-49.49955109954243
586,16.39549296875,0.26815058593749996,13.469778540039062,4.885496183206107,-14.320610687022901,0.4961832061068702,2656,175044,5.769715535286807,-49.81606803768805
587,16.424223388671873,0.239420166015625,13.321338037109374,4.580152671755725,-7.717557251908397,0.2748091603053435,2736,175065,5.769173725420159,-49.99758801201292
588,16.352397338867185,0.2442085693359375,13.4458365234375,4.2748091603053435,-7.549618320610687,0.3816793893129771,2736,175086,5.762576104866643,-50.16433640181854
589,16.448165405273436,0.27293898925781246,13.594277026367187,4.015267175572519,-8.129770992366412,0.0916030534351145,2736,175107,5.752962801739344,-50.336777785445435
590,16.347608935546873,0.27293898925781246,13.694833496093748,4.106870229007634,-12.145038167938932,0.17557251908396945,2720,175128,5.7452580897525865,-50.58079875143693
591,16.275782885742185,0.2537853759765625,13.713987109375,4.900763358778626,-18.770992366412212,0.05343511450381679,2656,175149,5.752414057867117,-50.95304284390138
592,16.764200024414063,0.2537853759765625,12.818555688476561,4.709923664122138,-19.137404580152673,0.44274809160305345,2784,175170,5.756980201783856,-51.37966289072144
593,16.548721875,0.22505495605468748,13.33091484375,4.267175572519084,-13.48091603053435,0.5267175572519084,2704,175191,5.7490027912023045,-51.6523596315026
594,16.74504641113281,0.16280571289062498,13.02445703125,4.801526717557252,-19.412213740458014,0.061068702290076333,2704,175212,5.747161354134995,-52.06125005658179
595,16.72589279785156,0.239420166015625,13.187262744140623,4.694656488549619,-24.244274809160306,0.183206106870229,2704,175233,5.749636439903309,-52.55381146686721
596,17.214309936523435,0.24899697265624998,12.339715356445312,4.908396946564886,-21.419847328244273,0.20610687022900764,2720,175254,5.758778242889133,-53.03076426577482
597,17.099388256835937,0.2825157958984375,12.282254516601562,4.2748091603053435,-10.15267175572519,0.4198473282442748,2704,175275,5.75793189572179,-53.26516405113056
598,16.95573615722656,0.1484405029296875,12.7563064453125,4.587786259541985,-15.221374045801527,0.33587786259541985,2736,175296,5.750523900532378,-53.57397465468587
599,16.98925498046875,0.26815058593749996,12.69884560546875,4.465648854961832,-21.022900763358777,-0.3511450381679389,2832,175317,5.751610193076401,-53.999488620546835
600,17.444153295898438,0.3399766357421875,11.669338891601562,4.473282442748092,-16.35114503816794,0.3435114503816794,2784,175338,5.7620140135126725,-54.3801665744459
601,17.28134758300781,0.26336218261718747,12.109871997070313,4.778625954198473,-13.099236641221374,0.3053435114503817,2784,175359,5.770034986281268,-54.66160263512056
602,17.209521533203123,0.3399766357421875,12.382810986328124,4.801526717557252,-17.099236641221374,0.2900763358778626,2672,175380,5.784903524239845,-55.0053432882269
603,17.650054638671875,0.26815058593749996,11.276689819335937,4.5038167938931295,-18.19083969465649,0.3969465648854962,2720,175401,5.789137817360825,-55.42796353831769
604,17.535132958984374,0.3447650390625,11.597512841796874,3.969465648854962,-12.251908396946565,0.030534351145038167,2736,175422,5.789101837980884,-55.70171283542758
605,17.44894169921875,0.3112462158203125,11.745953344726562,3.2442748091603053,-14.236641221374045,-0.3053435114503817,2640,175443,5.770444533882458,-56.00154401446245
606,17.472883715820313,0.22505495605468748,11.808202587890625,4.526717557251908,-16.129770992366414,0.31297709923664124,2720,175464,5.770033086962029,-56.33234947682687
607,17.673996655273438,0.2442085693359375,11.4538607421875,4.488549618320611,-23.236641221374047,0.07633587786259542,2704,175485,5.771435221972409,-56.824878240000984
608,17.83201396484375,0.3112462158203125,10.970232006835937,4.152671755725191,-16.366412213740457,0.11450381679389313,2720,175506,5.773971573949194,-57.1930001522455
609,17.90862841796875,0.3495534423828125,10.955866796875,2.480916030534351,-12.290076335877863,-1.015267175572519,2768,175527,5.74609811399305,-57.47267391417634
610,18.157625390625,0.26815058593749996,10.146626635742187,-4.816793893129771,-19.931297709923665,-4.374045801526718,2704,175548,5.562323239338132,-57.94930000866071
611,17.946935644531248,0.3687070556640625,11.386823095703125,1.3053435114503817,-21.19083969465649,-1.8015267175572518,2704,175569,5.515032704608422,-58.3782704165913
612,18.06185732421875,0.40222587890625,10.24718310546875,-1.4274809160305344,-25.053435114503817,-2.854961832061069,2704,175590,5.420311278039624,-58.934568007554425
613,18.377891943359373,0.3112462158203125,9.883264453125,2.3282442748091605,-9.86259541984733,-0.5725190839694656,2720,175611,5.395895854722329,-59.19320232803512
614,17.348385229492187,0.2346317626953125,12.287042919921875,-3.8702290076335877,-12.65648854961832,-3.564885496183206,2736,175632,5.230208219490329,-59.36354745014933
615,17.41063447265625,0.3399766357421875,11.722011328125,-0.25190839694656486,-19.916030534351144,-2.16793893129771,2784,175653,5.153645762870247,-59.706903318026185
616,17.769764721679685,0.3591302490234375,11.195286962890624,4.32824427480916,-26.045801526717558,-0.022900763358778626,2784,175674,5.176394995690102,-60.20428801484225
617,18.593370092773437,0.3495534423828125,9.4618849609375,4.419847328244275,-24.17557251908397,0.015267175572519083,2704,175695,5.206142236466311,-60.75800250259697
618,18.3491615234375,0.33518823242187495,9.97903251953125,4.641221374045801,-17.33587786259542,0.2366412213740458,2704,175716,5.236011708836602,-61.1285601091902
619,18.411410766601563,0.40222587890625,9.720458740234374,4.748091603053435,-24.702290076335878,-0.1450381679389313,2704,175737,5.276397361135816,-61.65731344817302
620,18.464083203125,0.33039982910156246,9.648632690429688,4.801526717557252,-25.50381679389313,-0.1450381679389313,2672,175758,5.308909296523578,-62.19696268962616
621,18.722656982421874,0.373495458984375,8.959102612304687,4.847328244274809,-23.068702290076335,0.37404580152671757,2736,175779,5.3502334814489405,-62.715952044903766
622,18.842367065429688,0.3495534423828125,8.748412866210938,4.450381679389313,-11.687022900763358,0.25190839694656486,2736,175800,5.3805797707739575,-63.003698806112844
623,18.722656982421874,0.2920926025390625,9.260772021484375,4.068702290076335,-5.320610687022901,0.2900763358778626,2768,175821,5.392833239700843,-63.126529733732106
624,18.703503369140623,0.26815058593749996,9.02135185546875,3.854961832061069,-6.931297709923665,0.183206106870229,2784,175842,5.398362848801102,-63.2914545408484
625,18.564639672851563,0.277727392578125,9.299079248046874,4.312977099236641,-11.625954198473282,0.4351145038167939,2720,175863,5.413370539745302,-63.53255468834512
626,18.83279025878906,0.3447650390625,8.834604125976561,4.633587786259542,-12.068702290076336,0.1450381679389313,2784,175884,5.445158342766395,-63.80730960080742
627,18.780117822265623,0.37828386230468747,8.767566479492187,4.297709923664122,-10.229007633587786,0.21374045801526717,2736,175905,5.474112870941575,-64.04075400408844
628,18.837578662109372,0.39264907226562495,8.652644799804687,4.259541984732825,-8.961832061068701,0.19083969465648856,2720,175926,5.50425693412973,-64.25051245965125
629,18.708291772460935,0.373495458984375,8.954314208984375,4.083969465648855,-13.206106870229007,0.3053435114503817,2704,175947,5.525989744818404,-64.52535419450676
630,18.516755639648437,0.44053310546874996,9.131485131835937,3.786259541984733,-27.435114503816795,-0.05343511450381679,2720,175968,5.548631108158989,-65.07393163848779
631,19.895815795898436,0.6655880615234374,6.2201359130859375,-9.351145038167939,-16.221374045801525,-3.8931297709923665,2720,175989,5.367366250830758,-65.55720492121092
632,19.397821850585938,0.38786066894531246,7.3932947265625,4.702290076335878,-13.98473282442748,0.3511450381679389,2704,176010,5.416853034689567,-65.91606494083447
633,19.110517651367186,0.38786066894531246,8.02536396484375,4.549618320610687,-5.106870229007634,0.3816793893129771,2768,176031,5.457485422846663,-66.04677122742733
634,18.73702219238281,0.39264907226562495,8.566453540039062,4.442748091603053,-13.83969465648855,0.26717557251908397,2816,176052,5.4922545339677855,-66.31880997755152
635,19.06263361816406,0.3399766357421875,7.7763669921875,4.549618320610687,-21.206106870229007,0.37404580152671757,2656,176073,5.526107232372051,-66.78462469290979
636,19.01953798828125,0.33518823242187495,7.671022119140624,4.969465648854962,-20.16030534351145,0.2595419847328244,2720,176094,5.567896078521815,-67.22414469742297
637,19.302053784179687,0.3591302490234375,7.1203557373046875,4.603053435114504,-13.816793893129772,0.37404580152671757,2736,176115,5.609016745700531,-67.5585671494179
638,19.225439331054687,0.38307226562499996,7.240065820312499,4.3893129770992365,-0.4732824427480916,0.3816793893129771,2736,176136,5.647742443422034,-67.60389217379995
639,18.82800185546875,0.316034619140625,8.29351455078125,4.114503816793893,-9.358778625954198,0.3282442748091603,2656,176157,5.663109495079604,-67.76865261691232
640,19.076998828125,0.44532150878906246,7.517793212890624,4.702290076335878,-25.213740458015266,0.007633587786259542,2720,176178,5.7144202852180905,-68.30132884632081
641,19.680337646484375,0.44053310546874996,6.234501123046875,4.770992366412214,-15.312977099236642,0.3435114503816794,2736,176199,5.779155538497575,-68.69806908590432
642,19.378668237304687,0.28730419921875,6.943184814453125,4.206106870229007,-3.2290076335877864,0.1450381679389313,2672,176220,5.797524268402042,-68.79600735836064
643,19.268534960937497,0.39264907226562495,6.794744311523437,3.801526717557252,-2.4885496183206106,0.2595419847328244,2736,176241,5.82595486400906,-68.8822142373436
644,19.780894116210938,0.2346317626953125,6.076483813476562,0.061068702290076333,1.6641221374045803,-0.4351145038167939,2816,176262,5.754917921487914,-68.92855442552023
645,19.009961181640623,-0.0047884033203125,7.8721350585937495,-5.106870229007634,12.183206106870228,-1.3893129770992367,2720,176283,5.534023144883298,-68.64935829320761
646,19.067422021484372,-0.32082302246093747,8.049305981445311,25.984732824427482,31.786259541984734,6.213740458015267,2720,176304,5.912459627083579,-67.96414347745699
647,16.11297717285156,0.316034619140625,6.028599780273437,33.33587786259542,53.458015267175576,9.106870229007633,2704,176325,6.540279689243136,-66.89391600432054
648,20.039467895507812,0.5602431884765625,4.180276098632812,13.778625954198473,48.13740458015267,3.435114503816794,2736,176346,6.845704829340304,-66.12766158335408
649,18.186355810546875,0.3112462158203125,9.739612353515625,4.183206106870229,1.6793893129770991,0.648854961832061,2720,176367,6.8314883777296584,-66.00688200900483
650,19.13445966796875,0.3016694091796875,7.943961108398437,4.32824427480916,-18.31297709923664,0.08396946564885496,2672,176388,6.827428759642839,-66.41240252721273
651,19.024326391601562,0.3687070556640625,8.111555224609374,4.152671755725191,-10.099236641221374,0.3893129770992366,2768,176409,6.828393413232802,-66.62972324109177
652,19.440917480468748,0.4070142822265625,6.7803791015625,4.106870229007634,-1.900763358778626,0.3893129770992366,2768,176430,6.84504979585678,-66.75106198908877
653,19.3068421875,0.4165910888671875,7.105990527343749,3.49618320610687,7.877862595419847,0.7022900763358778,2768,176451,6.847203132249734,-66.64914833204207
654,18.799271435546874,0.3591302490234375,8.489839086914062,3.7404580152671754,-0.9083969465648855,0.35877862595419846,2640,176472,6.835682400569074,-66.64839266678207
655,19.17276689453125,0.4740519287109375,7.4794859863281244,4.358778625954199,-13.244274809160306,0.5038167938931297,2720,176493,6.861203852357423,-66.96098872451971
656,19.29247697753906,0.40222587890625,7.216123803710937,4.541984732824427,-5.534351145038168,0.4732824427480916,2704,176514,6.8812609923399135,-67.12492797983401
657,19.378668237304687,0.36391865234375,7.225700610351562,4.679389312977099,-1.7404580152671756,0.366412213740458,2736,176535,6.897602323002169,-67.2087943447756
658,19.076998828125,0.296881005859375,7.666233715820312,12.977099236641221,-9.251908396946565,2.9083969465648853,2720,176556,7.071073308964475,-67.41686369418515
659,18.880674291992186,0.44532150878906246,8.197746484375,5.099236641221374,-22.603053435114504,0.29770992366412213,2672,176577,7.0967819297170145,-67.86368285501574
660,19.397821850585938,0.3016694091796875,6.789955908203124,4.877862595419847,-34.412213740458014,-0.007633587786259542,2720,176598,7.106110868078726,-68.62842137397531
661,19.747375292968748,0.38307226562499996,5.913678100585937,5.267175572519084,-16.19083969465649,0.549618320610687,2736,176619,7.146512909943842,-69.05497653848242
662,19.13924807128906,0.63206923828125,7.75721337890625,15.083969465648854,-31.549618320610687,1.6946564885496183,2784,176640,7.407175825541531,-69.68058855420162
663,14.475343237304687,0.1484405029296875,8.59997236328125,-2.618320610687023,-55.267175572519086,-3.0076335877862594,2704,176661,7.224924473607717,-70.6099993684199
664,19.622876806640623,-0.8188169677734375,7.881711865234375,-5.7251908396946565,-39.083969465648856,-2.0916030534351147,2720,176682,6.84397996293488,-71.3623496217532
665,19.488801513671874,0.63206923828125,4.994304663085937,-1.8091603053435115,-36.41984732824427,-1.0458015267175573,2736,176703,6.814125709440994,-72.19495402343141
666,18.966865551757813,1.3551181396484375,3.0789433349609374,4.961832061068702,-56.35114503816794,-0.816793893129771,2736,176724,7.255067029783726,-73.50961375428767
667,17.515979345703123,1.2114660400390624,1.43652099609375,7.740458015267175,-72.87022900763358,-1.83206106870229,2720,176745,8.072105343349328,-75.21662239051425
668,21.327548388671875,-0.239420166015625,4.467580297851562,-10.770992366412214,-54.7557251908397,0.4351145038167939,2656,176766,7.627644634106216,-76.4022139017874
669,19.86229697265625,0.737414111328125,4.673481640625,-8.0,-45.778625954198475,-1.16793893129771,2704,176787,7.489783689108104,-77.3483246182829
670,20.09214033203125,0.15322890625,4.204218115234375,0.6870229007633588,-28.17557251908397,-0.2748091603053435,2672,176808,7.395873046079183,-77.94468996812118
671,19.972430249023436,0.40222587890625,3.4763808105468748,4.778625954198473,-18.557251908396946,0.25190839694656486,2816,176829,7.478298046933282,-78.3689347076269
672,19.94369982910156,0.39743747558593745,3.294421484375,4.4961832061068705,-15.564885496183207,0.29770992366412213,2736,176850,7.558841399598429,-78.73295032706844
673,19.527108740234375,0.3495534423828125,3.9935283691406247,4.3893129770992365,-24.72519083969466,0.2595419847328244,2704,176871,7.5980436135314475,-79.23510997979879
674,20.087351928710937,0.4070142822265625,2.446874096679687,-8.16793893129771,-19.549618320610687,-0.6412213740458015,2704,176892,7.466869334950295,-79.71194782259194
675,20.312406884765625,0.43574470214843747,1.944091748046875,4.129770992366412,-12.076335877862595,0.3053435114503817,2784,176913,7.65518987397969,-80.05420197854816
676,20.039467895507812,0.4213794921875,2.518700146484375,3.2900763358778624,-0.0916030534351145,0.3893129770992366,2704,176934,7.759748774664735,-80.10975761756481
677,19.354726220703125,0.5889736083984375,3.21780703125,-11.748091603053435,-14.679389312977099,0.19083969465648856,2736,176955,7.570225256765095,-80.41779912222039
678,19.948488232421873,0.1149216796875,3.7924154296875,-4.648854961832061,-20.702290076335878,0.007633587786259542,2672,176976,7.357861408293858,-80.82011829893807
679,19.886238989257812,-0.3399766357421875,2.7964275390625,-8.740458015267176,-14.206106870229007,-0.04580152671755725,2720,176997,6.892190835438755,-81.13482393443127
680,19.072210424804688,0.689530078125,2.5234885498046875,-4.030534351145038,-12.908396946564885,0.4122137404580153,2736,177018,6.977052889648549,-81.42157996470871
681,19.962853442382812,0.3447650390625,2.2361843505859373,-3.8625954198473282,-0.5801526717557252,0.3893129770992366,2672,177039,6.933311621387369,-81.47576083694031
682,19.70906806640625,0.38786066894531246,3.1842882080078123,-9.755725190839694,-3.6412213740458017,0.4580152671755725,2720,177060,6.732766059311986,-81.53629539133028
683,19.488801513671874,0.5506663818359374,3.0214824951171875,-18.3206106870229,-4.33587786259542,0.48854961832061067,2720,177081,6.427648895262907,-81.61568935679013
684,19.934123022460938,-0.1292868896484375,3.0119056884765625,-11.01526717557252,-10.633587786259541,0.7480916030534351,2736,177102,6.023243151391751,-81.83021893210393
685,19.488801513671874,0.97683427734375,0.12449848632812499,1.4580152671755726,-5.801526717557252,0.48854961832061067,2704,177123,7.587519347750699,-82.05515800515579
686,19.718644873046873,0.8858546142578124,1.2401964599609374,3.4732824427480917,-4.572519083969466,0.15267175572519084,2720,177144,8.218002669306928,-82.21976359438659
687,20.135235961914063,0.3447650390625,1.7094599853515624,4.030534351145038,7.076335877862595,0.6106870229007634,2768,177165,8.364640897555136,-82.13073850153822
688,19.642030419921873,0.19153613281249998,3.0693665283203124,10.17557251908397,5.015267175572519,0.6183206106870229,2720,177186,8.478176752384076,-82.00693931418061
689,19.69470285644531,0.43574470214843747,2.7820623291015623,4.564885496183206,-2.053435114503817,0.5114503816793893,2736,177207,8.580592881505686,-82.04631841106368
690,19.886238989257812,0.36391865234375,2.212242333984375,5.923664122137405,-8.274809160305344,0.022900763358778626,2704,177228,8.71772233122809,-82.24704026872689
691,19.809624536132812,0.0526724365234375,2.422932080078125,8.274809160305344,-3.183206106870229,0.09923664122137404,2704,177249,8.738570742457979,-82.32811201594063
692,19.814412939453124,0.22026655273437498,2.6001030029296874,14.366412213740459,-10.022900763358779,-0.22137404580152673,2816,177270,8.956304584923178,-82.53777563777663
693,19.603723193359375,0.36391865234375,2.9640216552734375,4.687022900763359,-22.27480916030534,0.2595419847328244,2736,177291,9.013630780262865,-82.97220755720438
694,20.039467895507812,0.3447650390625,1.6472107421875,4.778625954198473,-28.64885496183206,0.17557251908396945,2720,177312,9.168132053607158,-83.60634872409102
695,19.819201342773436,0.39264907226562495,1.6232687255859375,5.709923664122138,-25.564885496183205,0.04580152671755725,2720,177333,9.374238985421782,-84.164013103803
696,19.953276635742185,0.3447650390625,1.024718310546875,5.022900763358779,-25.625954198473284,-0.12213740458015267,2736,177354,9.662034319078403,-84.74608458272043
697,19.733010083007812,0.51714755859375,1.4891934326171874,4.755725190839694,-21.374045801526716,0.17557251908396945,2672,177375,9.94967487484638,-85.19968976638476
698,19.704279663085938,0.2920926025390625,1.2976572998046874,5.015267175572519,-33.01526717557252,-0.10687022900763359,2768,177396,10.10760386165591,-85.89791303464628
699,19.905392602539063,0.3447650390625,0.033518823242187495,5.66412213740458,-25.396946564885496,0.19083969465648856,2672,177417,11.710959997349843,-86.48268489913568
700,19.416975463867185,0.7996633544921875,-0.6943184814453125,4.8396946564885495,-23.46564885496183,0.2824427480916031,2704,177438,14.19567349197798,-86.97351635670621
701,19.823989746093748,1.1444283935546875,0.2825157958984375,-3.068702290076336,-41.74809160305343,1.282442748091603,2704,177459,15.37126819241876,-87.82516289163682
702,20.676325537109374,-0.21068974609375,1.6998831787109374,-0.7557251908396947,-34.465648854961835,0.9770992366412213,2784,177480,14.90698168324352,-88.48324780408322
703,19.345149414062497,0.6512228515624999,-1.9393033447265624,-4.3816793893129775,-42.58015267175573,1.3740458015267176,2704,177501,17.7474235212657,-89.26915200102917
704,19.86229697265625,0.11013327636718749,-0.6512228515624999,3.2748091603053435,-33.656488549618324,0.32061068702290074,2704,177522,20.86789256198864,-89.93832903517006
705,19.565415966796873,0.8858546142578124,-1.6998831787109374,0.07633587786259542,-33.93129770992366,0.8015267175572519,2736,177543,23.501601188240397,-90.52595840255086
706,21.212626708984374,-0.316034619140625,1.139639990234375,-6.847328244274809,-34.30534351145038,2.2900763358778624,2720,177564,22.580665641678397,-91.15762207941634
707,19.742586889648436,0.296881005859375,-1.8243816650390623,-1.4351145038167938,-26.442748091603054,1.3358778625954197,2720,177585,25.514663557754762,-91.57168804771855
708,20.01552587890625,0.2442085693359375,-0.9576806640625,-4.603053435114504,-25.885496183206108,2.045801526717557,2704,177606,28.223528409972577,-92.01644068213967
709,19.67554924316406,-0.11013327636718749,-1.2737152832031249,1.7099236641221374,-23.68702290076336,0.8778625954198473,2784,177627,24.19308517176422,-92.38923660561431
710,19.723433276367185,0.2825157958984375,-2.0302830078125,3.282442748091603,-18.83206106870229,0.549618320610687,2736,177648,27.218338287255648,-92.61034738469051
711,19.40739865722656,0.43574470214843747,-2.81558115234375,2.198473282442748,-16.946564885496183,0.7557251908396947,2720,177669,30.143267887463388,-92.73986791756894
712,19.436129077148436,0.33039982910156246,-3.2561142578125,-2.381679389312977,-0.2595419847328244,1.8702290076335877,2720,177690,32.97550746407702,-92.49924549541271
713,19.795259326171873,0.430956298828125,-1.3215993164062498,-2.7022900763358777,-4.870229007633588,2.213740458015267,2704,177711,35.499174746300504,-92.46915176219673
714,19.77131730957031,-0.028730419921875,-1.8914193115234375,0.7022900763358778,-8.267175572519085,0.8931297709923665,2720,177732,31.22104935536166,-92.48060346406814
715,19.79047092285156,0.22026655273437498,-2.5043349365234375,2.984732824427481,-10.427480916030534,0.2366412213740458,2704,177753,34.15752487930189,-92.50079767234011
716,20.776882006835937,1.0390835205078124,-2.7150246826171873,3.7404580152671754,-7.8320610687022905,-3.312977099236641,2720,177774,36.732499996670285,-92.45266495686178
717,19.00517277832031,0.9337386474609375,-3.1938650146484373,5.2748091603053435,2.648854961832061,-6.908396946564886,2736,177795,39.380475919928934,-92.15047662753251
718,19.086575634765623,0.430956298828125,-3.81156904296875,7.778625954198473,-5.595419847328245,-8.366412213740459,2768,177816,42.22393510915968,-91.99535211727887
