ax,ay,az,gx,gy,gz,temp,time
-204,-328,18496,482,315,39,2704,162739
-268,-324,18420,509,332,71,2704,162759
-288,-300,18384,462,325,29,2672,162780
-264,-372,18440,499,321,63,2720,162801
-272,-348,18480,481,281,61,2656,162822
-228,-316,18436,499,313,79,2704,162843
-280,-356,18520,490,313,36,2720,162864
-268,-448,18428,469,312,51,2640,162885
-268,-400,18512,494,317,42,2704,162906
-464,-508,18404,512,312,24,2704,162927
8,-220,18416,524,301,90,2704,162948
-68,-248,18320,500,338,67,2704,162969
-96,-164,18416,505,361,32,2704,162990
-444,-312,18500,463,299,62,2704,163011
-372,-536,18472,475,327,48,2672,163032
-312,-380,18356,493,308,68,2640,163053
-12,-308,18472,522,334,79,2720,163074
-244,-288,18424,471,362,49,2704,163095
-224,-224,18508,489,357,81,2704,163116
-440,-372,18356,476,332,76,2720,163137
-264,-380,18544,502,316,49,2720,163158
-188,-412,18388,496,315,65,2640,163179
-156,-368,18484,513,339,41,2704,163200
-248,-236,18360,483,329,69,2704,163221
-352,-336,18424,488,331,31,2720,163242
-288,-276,18500,487,281,76,2704,163263
-148,-400,18456,493,359,42,2656,163284
-68,-368,18436,479,338,91,2720,163305
-300,-388,18348,502,352,56,2720,163326
-320,-248,18488,478,334,54,2672,163347
-352,-376,18532,498,328,47,2672,163368
-264,-404,18364,514,334,43,2720,163389
-184,-300,18484,511,305,36,2736,163410
-232,-332,18444,492,323,67,2640,163431
-240,-396,18420,512,301,57,2656,163452
816,-164,18516,360,829,-572,2672,163473
-444,-1220,18400,436,657,-2347,2720,163494
-228,-2236,18508,633,440,-8442,2704,163515
808,-2004,18576,-168,388,2278,2656,163536
-1100,576,18516,-456,253,799,2720,163557
-372,-476,18400,-572,518,276,2640,163578
-308,-464,18504,-895,435,343,2640,163599
-192,-420,18440,-1229,520,379,2720,163620
-420,484,18408,-1479,475,1182,2704,163641
-352,-368,18636,-2146,347,706,2704,163662
-868,-656,18444,-2678,468,408,2704,163683
-300,-1324,18260,-2650,457,35,2640,163704
-160,-1500,18308,-2736,498,353,2640,163725
-280,-1132,18428,-2863,414,347,2640,163746
108,-1932,18344,-2810,440,1218,2736,163767
-24,-2224,18452,-3025,310,1914,2720,163788
-440,-1784,18276,-2494,431,1660,2704,163809
-416,-2028,18088,-1689,387,1349,2656,163830
-428,-1844,18536,-1550,385,515,2720,163851
-436,-2132,18288,-2269,668,105,2704,163872
-384,-2308,18268,-2927,681,84,2720,163893
-436,-2376,18156,-2979,309,324,2720,163914
-472,-2532,18272,-3047,291,431,2704,163935
-208,-2228,18176,-3197,49,440,2608,163956
-560,-2556,18044,-3469,722,-909,2704,163977
-444,-3960,17916,-1979,112,-58,2736,163998
-400,-2804,18384,-3119,219,331,2704,164019
-468,-3464,17992,-3622,163,438,2704,164040
-536,-3380,18072,-3466,140,-181,2720,164061
-360,-3904,17968,-3618,294,-656,2640,164082
-288,-3972,17840,-3286,164,42,2592,164103
-424,-4020,17872,-3366,53,19,2640,164124
-484,-4260,17852,-3321,111,14,2704,164145
-368,-4384,17780,-3022,224,-23,2672,164166
-376,-4424,17868,-3792,233,-23,2720,164187
-392,-4736,17624,-4588,238,-82,2736,164208
-424,-4972,17528,-4799,273,-67,2720,164229
-384,-5376,17456,-4561,261,-61,2656,164250
-264,-5576,17284,-3778,185,248,2704,164271
-252,-5724,17348,-3282,146,568,2656,164292
-228,-5804,17356,-3426,-69,845,2704,164313
-464,-5860,17264,-3675,-95,675,2704,164334
-364,-6216,17264,-3626,153,444,2720,164355
-316,-6320,16980,-3528,108,466,2704,164376
-460,-6360,16972,-3560,134,209,2672,164397
-260,-6736,16724,-3483,248,273,2720,164418
-448,-6692,16984,-3450,315,-81,2720,164439
-496,-6872,16708,-3993,754,-622,2672,164460
-204,-7348,16568,-3654,849,-612,2720,164481
-400,-7336,16580,-3200,636,-68,2704,164502
-328,-7656,16520,-2924,172,-118,2704,164523
-284,-7656,16316,-2119,-289,125,2656,164544
-164,-7844,16476,-1771,-669,357,2704,164565
-36,-7804,16644,-1637,105,35,2704,164586
-120,-7836,16456,-1455,0,44,2704,164607
-180,-7820,16432,-2190,189,-57,2672,164628
-128,-7928,16424,-3123,593,-149,2704,164649
-224,-8216,16212,-3947,884,-30,2736,164670
-128,-8460,16024,-3423,552,-53,2656,164691
-476,-8732,15716,-2974,353,207,2656,164712
-356,-8888,15664,-3055,18,413,2656,164733
-296,-8436,16004,-3462,-47,620,2640,164754
-196,-9016,15864,-5029,-595,1218,2704,164775
-504,-8924,15572,-5934,-875,1182,2704,164796
-500,-9128,15012,-6366,-622,678,2672,164817
-236,-9764,14972,-5821,-40,-87,2704,164838
-492,-9952,14928,-5103,9,-185,2736,164859
-248,-10208,14600,-4471,47,-423,2640,164880
-96,-10400,14636,-3556,344,-552,2704,164901
-60,-10388,14596,-3627,221,-434,2640,164922
-20,-10776,14476,-3642,462,-479,2720,164943
-8,-10848,14176,-3243,291,-20,2640,164964
36,-10864,14296,-3567,115,192,2704,164985
-120,-11004,14040,-3464,-280,570,2704,165006
-80,-11144,13812,-2949,-52,496,2672,165027
-76,-11124,13900,-3281,-25,353,2704,165048
-76,-11332,13736,-3837,199,137,2704,165069
-188,-11360,13596,-4444,264,73,2736,165090
-64,-11604,13516,-5616,40,482,2640,165111
-92,-11632,13508,-6805,2,244,2720,165132
-56,-12184,12808,-6935,9,-17,2704,165153
12,-12484,12480,-6171,96,-32,2720,165174
-28,-12532,12368,-6026,162,-166,2720,165195
-48,-12712,12232,-6175,74,-112,2736,165216
-68,-13004,11760,-6228,-137,-138,2672,165237
-84,-13152,11500,-5734,-626,15,2720,165258
0,-13416,11244,-4894,-305,-327,2720,165279
48,-13548,10884,-3612,-272,-365,2704,165300
136,-13600,11020,-2727,215,-504,2736,165321
128,-13512,11124,-2592,545,-697,2704,165342
148,-13644,10928,-2921,891,-826,2704,165363
172,-13928,10604,-2571,670,-683,2704,165384
196,-13912,10528,-2080,579,-439,2672,165405
152,-13788,10492,-2253,307,-276,2672,165426
212,-13692,10576,-3467,496,-483,2720,165447
236,-14004,10388,-4372,926,-824,2672,165468
172,-14416,9840,-3738,548,-512,2704,165489
328,-14220,9944,-3071,577,-535,2736,165510
328,-14484,9620,-2440,822,-554,2704,165531
336,-14344,9688,-2200,1097,-734,2768,165552
224,-14660,9324,-2091,1331,-790,2720,165573
256,-14568,9244,-1659,659,-347,2704,165594
364,-14572,9356,-1473,928,-496,2720,165615
424,-14460,9496,-1495,1211,-680,2736,165636
272,-14656,9060,-1674,1513,-775,2736,165657
236,-14724,8940,-1776,522,-194,2704,165678
308,-14632,9160,-2553,252,-54,2736,165699
372,-14800,8864,-3099,77,-88,2768,165720
276,-14808,8604,-3783,-506,198,2736,165741
468,-15012,8500,-4302,-1080,308,2704,165762
376,-15088,8208,-3946,-931,246,2720,165783
452,-15208,7992,-3787,-556,56,2656,165804
424,-15196,7772,-3350,-1270,348,2640,165825
436,-15396,7740,-2534,-1080,294,2704,165846
384,-15448,7280,-1707,-1262,488,2704,165867
508,-15304,7660,-1244,-536,191,2736,165888
544,-15180,7820,-1770,123,-103,2720,165909
436,-15424,7380,-1479,178,-119,2672,165930
512,-15532,7176,-1326,289,-141,2704,165951
556,-15708,7004,-593,393,-84,2704,165972
536,-15380,7216,95,296,31,2784,165993
524,-15360,7288,-629,327,-60,2704,166014
520,-15380,7192,-1297,559,-197,2736,166035
584,-15384,7332,-2004,911,-363,2656,166056
536,-15840,6512,-2136,917,-309,2720,166077
616,-15788,6656,-957,630,-69,2720,166098
508,-15488,6788,-950,1375,-461,2736,166119
648,-15620,6960,-1264,2596,-802,2656,166140
604,-15484,6844,-1392,3611,-1120,2720,166161
264,-16080,5424,-1782,3034,-858,2736,166182
780,-15796,6192,-2177,436,-56,2736,166203
604,-15752,6336,-904,350,-1,2736,166224
484,-15780,6132,-1050,323,-22,2736,166245
520,-15652,6220,-1161,337,-50,2672,166266
588,-15772,6044,-1767,546,-231,2720,166287
576,-15844,5916,-1583,705,-186,2720,166308
684,-15724,6092,-1697,598,-125,2704,166329
648,-15764,6004,-2107,771,-186,2720,166350
568,-15624,5676,-3848,1311,-385,2720,166371
608,-15916,5256,-4456,2081,-514,2768,166392
72,-16116,3932,-4527,1112,-266,2672,166413
704,-16172,4828,-3461,223,-18,2720,166434
680,-16272,4548,-2240,242,26,2720,166455
752,-16088,4584,-1578,286,30,2704,166476
652,-15956,4756,-1833,296,22,2704,166497
716,-16024,4560,-2713,383,-55,2736,166518
620,-16080,4312,-2844,321,21,2736,166539
708,-16152,4232,-3711,240,-23,2704,166560
664,-16188,3812,-3449,177,-16,2736,166581
816,-16396,3628,-2795,75,-8,2672,166602
792,-16316,3452,-1839,-276,121,2768,166623
632,-16164,3512,-1569,-1138,214,2656,166644
740,-16252,3532,-1248,-1277,203,2720,166665
796,-16176,3548,-1439,-1484,183,2656,166686
828,-16420,3256,-1167,-740,146,2704,166707
556,-16196,3356,-1182,-371,67,2816,166728
656,-16156,3064,-1531,-594,90,2736,166749
852,-16268,3160,-1933,-2379,119,2720,166770
432,-16440,2976,-1001,-1104,62,2768,166791
1008,-16240,2680,-780,-1767,214,2672,166812
816,-16196,2760,-1665,-693,54,2672,166833
552,-16408,2692,-1328,-1407,104,2720,166854
468,-16420,2920,-564,-1299,77,2720,166875
828,-16260,2416,-651,-892,79,2736,166896
580,-15940,2876,-1848,-429,12,2720,166917
564,-16332,2564,-1380,-982,56,2720,166938
684,-16200,2548,-645,-1278,97,2736,166959
840,-16432,1972,179,-335,110,2736,166980
676,-16696,1932,406,41,130,2736,167001
808,-16464,2076,418,88,58,2720,167022
836,-16316,2132,-91,281,-6,2736,167043
960,-16308,2224,-934,194,54,2640,167064
752,-16332,2220,-437,278,11,2672,167085
732,-16272,2000,97,225,-36,2704,167106
644,-16336,2076,36,276,7,2672,167127
588,-16444,1808,-460,282,-5,2656,167148
736,-16036,2284,-1357,226,-2,2736,167169
780,-16304,1844,-1827,158,37,2768,167190
624,-16456,1440,-1851,213,-127,2704,167211
848,-16372,1680,-1603,94,23,2720,167232
576,-16360,1560,-1352,-11,1,2656,167253
832,-16376,1368,-609,-170,73,2736,167274
852,-16376,1332,-600,218,57,2768,167295
656,-16200,1500,-706,260,46,2720,167316
712,-16364,1316,-443,232,-3,2704,167337
736,-16320,1372,-255,66,35,2720,167358
624,-16420,1296,-24,-140,16,2704,167379
844,-16376,1156,48,26,18,2720,167400
716,-16352,1120,258,144,24,2720,167421
756,-16152,1348,39,273,-14,2704,167442
760,-16328,1280,-412,226,31,2784,167463
660,-16320,1084,-506,-36,-3,2720,167484
696,-16348,1060,-188,-512,1,2672,167505
848,-16304,1048,-360,49,-15,2704,167526
668,-16376,1140,-611,115,-106,2704,167547
748,-16396,952,-39,-200,-68,2736,167568
740,-16288,1012,379,-580,21,2656,167589
792,-16368,932,197,-233,8,2720,167610
812,-16296,656,592,-26,80,2704,167631
800,-16256,980,512,273,43,2704,167652
748,-16268,1036,106,216,-14,2736,167673
604,-16376,1264,190,-505,-15,2704,167694
892,-16220,580,340,-1206,2,2720,167715
736,-16380,972,783,-1607,-9,2704,167736
884,-16356,664,854,-297,79,2704,167757
760,-16236,960,969,316,60,2704,167778
756,-16268,1008,67,302,6,2640,167799
772,-16320,888,38,274,-13,2720,167820
760,-16408,780,697,233,74,2736,167841
772,-16364,864,1077,327,104,2816,167862
748,-16264,936,1054,330,99,2720,167883
700,-16296,1020,438,294,37,2720,167904
792,-16428,976,182,297,29,2736,167925
784,-16396,884,362,282,4,2736,167946
668,-16300,900,617,337,60,2720,167967
720,-16312,840,962,341,139,2720,167988
792,-16372,888,1210,354,168,2704,168009
720,-16436,988,1805,378,199,2720,168030
704,-16320,1092,2275,350,174,2672,168051
696,-16256,1260,1468,346,100,2784,168072
676,-16364,1172,1172,354,69,2720,168093
772,-16572,908,2039,409,125,2720,168114
720,-16588,1104,3826,453,179,2704,168135
720,-16240,1608,4230,477,169,2704,168156
684,-16276,1816,3300,440,130,2720,168177
696,-16344,1880,2925,418,65,2704,168198
672,-16376,1876,3525,440,130,2704,168219
708,-16280,2056,3787,506,154,2736,168240
728,-16340,2188,3535,532,112,2736,168261
732,-16316,2444,3694,661,122,2720,168282
836,-16308,2324,3897,1037,117,2704,168303
676,-16352,2588,4427,843,86,2704,168324
1068,-16132,2628,3673,2188,11,2704,168345
356,-16516,3392,2946,3751,-229,2720,168366
940,-16332,2804,5035,1394,35,2704,168387
72,-16332,3808,4593,4164,-318,2736,168408
464,-16428,2800,3520,5627,-462,2704,168429
488,-16316,3696,4505,4865,-398,2704,168450
-872,-16304,5180,6156,1644,-6,2720,168471
656,-16144,4324,5894,592,177,2704,168492
680,-16232,4392,6195,694,150,2704,168513
668,-15900,4964,5637,768,101,2704,168534
768,-15960,5248,4658,1017,54,2704,168555
640,-16048,4820,4163,4460,-703,2640,168576
8,-15900,4292,5835,7479,-1624,2736,168597
-136,-16248,4332,6788,4378,-785,2736,168618
744,-15764,5968,6494,1154,244,2704,168639
504,-15580,6312,5807,1908,-67,2704,168660
692,-15700,6500,5804,1398,65,2704,168681
512,-15564,6604,5919,1021,169,2704,168702
496,-15280,7052,4205,1033,74,2784,168723
452,-15376,7016,2865,1418,-158,2768,168744
576,-15948,6632,4077,2209,-340,2720,168765
580,-15504,7100,5329,1522,-27,2672,168786
504,-15592,7068,6541,1458,157,2736,168807
484,-15216,7648,7494,1142,371,2704,168828
464,-15084,8172,6647,1072,387,2704,168849
436,-15200,8092,7508,1053,577,2720,168870
284,-14836,8380,7989,529,822,2720,168891
468,-14584,9108,6918,206,734,2720,168912
744,-14128,10308,4525,-453,432,2720,168933
368,-14608,9272,3347,432,154,2736,168954
356,-14492,9400,3065,377,198,2704,168975
352,-14392,9652,2538,271,286,2704,168996
368,-14572,9384,2661,-9,451,2736,169017
312,-14348,9668,3060,-40,462,2768,169038
280,-14344,9760,3030,367,230,2704,169059
288,-14352,9872,3158,404,226,2656,169080
316,-14188,10020,3333,157,382,2768,169101
280,-14148,10184,3268,323,293,2720,169122
268,-14188,10104,3742,426,254,2640,169143
224,-14108,10232,4329,192,582,2672,169164
224,-13892,10564,4592,-170,874,2736,169185
296,-13908,10568,4742,-246,887,2704,169206
216,-13524,10952,4941,-26,738,2656,169227
232,-13360,11268,4286,308,376,2736,169248
84,-13544,11228,3989,412,173,2720,169269
60,-13312,11308,4102,498,135,2720,169290
132,-13328,11452,4440,498,265,2720,169311
168,-13384,11340,5209,310,439,2736,169332
144,-13064,11872,5763,-280,825,2656,169353
64,-12796,11972,5853,-160,866,2720,169374
72,-12556,12424,5210,248,377,2720,169395
36,-12580,12396,4780,17,505,2736,169416
112,-12484,12492,4741,-58,755,2656,169437
88,-12184,12836,4446,173,598,2736,169458
-28,-12192,12872,4206,389,246,2656,169479
32,-12184,12932,4159,457,182,2704,169500
-20,-12032,13032,4406,495,276,2672,169521
-28,-11872,13152,4567,239,508,2720,169542
-40,-11896,13252,4735,-180,849,2720,169563
68,-11608,13408,5139,-220,972,2672,169584
-44,-11452,13568,4949,-139,900,2704,169605
32,-11208,13840,4512,-361,1100,2704,169626
-40,-10968,14160,3969,-229,683,2736,169647
-32,-11176,13980,3787,201,255,2672,169668
-144,-10916,14140,3744,356,179,2704,169689
-92,-10920,14200,3717,388,165,2704,169710
-124,-10536,14512,3457,555,-151,2704,169731
-196,-10412,14536,2575,1120,-774,2720,169752
40,-10560,14472,2086,913,-594,2704,169773
-36,-10436,14660,2199,724,-233,2704,169794
-40,-10612,14272,2540,592,-26,2720,169815
-156,-10568,14380,3405,73,683,2736,169836
-40,-10336,14620,4063,59,830,2704,169857
-84,-10204,14616,4579,-85,911,2784,169878
-104,-10004,14916,4518,-56,952,2736,169899
-136,-9728,15192,4270,-10,750,2736,169920
-172,-9692,15128,3986,-8,453,2704,169941
-320,-9644,15264,4653,-559,852,2672,169962
-1456,-7540,16740,6436,-311,1399,2704,169983
1488,-9936,14992,9530,423,1145,2672,170004
-296,-8460,16004,9313,427,895,2672,170025
188,-8068,16228,6834,1007,365,2736,170046
120,-9464,15528,3802,417,-13,2656,170067
40,-8052,16008,3715,-156,949,2656,170088
-200,-8152,16156,4339,69,800,2720,170109
-396,-7948,16256,5125,-36,995,2720,170130
-224,-7888,16492,4369,318,433,2704,170151
-232,-7416,16624,3077,371,149,2640,170172
-120,-7420,16592,2278,536,-118,2736,170193
-264,-7564,16488,2679,329,121,2736,170214
-260,-7348,16600,3578,324,214,2672,170235
-332,-7008,16792,3812,526,83,2720,170256
-288,-6844,16928,3471,647,-224,2720,170277
-392,-6652,17024,2912,941,-596,2720,170298
-276,-6812,16956,2599,671,-504,2704,170319
-304,-6736,16828,2833,343,-142,2656,170340
-356,-6400,17084,2778,455,-238,2720,170361
-316,-6560,17108,2656,501,-312,2704,170382
-292,-6268,17112,2419,478,-382,2736,170403
-208,-6416,17004,2485,427,-138,2720,170424
-336,-6284,17080,3019,345,148,2672,170445
-308,-6100,17216,3561,429,203,2720,170466
-308,-5988,17300,3380,408,350,2720,170487
-356,-5612,17276,3240,157,430,2736,170508
-316,-5732,17372,2743,256,100,2656,170529
-328,-5648,17244,3099,282,143,2720,170550
-288,-5600,17300,4148,328,360,2720,170571
-380,-5328,17552,4828,211,616,2720,170592
-356,-5128,17760,4366,299,577,2816,170613
-392,-4868,17836,2951,264,413,2704,170634
-336,-4860,17584,2291,355,310,2736,170655
-324,-4804,17748,2331,288,392,2704,170676
-340,-4788,17652,2794,214,701,2736,170697
-364,-4600,17780,2948,167,653,2640,170718
-356,-4464,17764,2775,279,331,2704,170739
-412,-4372,17916,2394,403,233,2704,170760
-276,-4240,17832,1862,313,174,2784,170781
-384,-4264,17780,1860,327,84,2720,170802
-344,-4188,17832,1923,414,35,2704,170823
-380,-4028,17896,2155,451,-190,2704,170844
-264,-3908,18028,2355,618,-893,2672,170865
-388,-3400,17756,3579,455,-95,2720,170886
-472,-4072,17716,4397,287,350,2720,170907
-444,-3184,17944,4543,334,478,2720,170928
-412,-3336,18084,4874,347,656,2640,170949
-204,-3224,18172,4861,259,625,2736,170970
-332,-3412,18232,4244,380,204,2704,170991
-204,-3108,18232,3838,379,384,2736,171012
-340,-2688,18156,3930,200,797,2704,171033
-320,-2524,18028,4797,35,1497,2736,171054
-392,-2264,18300,5756,20,1907,2720,171075
-548,-1912,18420,5332,136,1397,2736,171096
-276,-2468,18472,4190,271,778,2768,171117
-404,-1640,18532,3056,343,341,2672,171138
-320,-1712,18328,2557,356,371,2720,171159
-284,-1400,18332,2492,285,562,2736,171180
-440,-1492,18400,2188,260,470,2656,171201
-400,-1216,18588,1608,256,249,2704,171222
-324,-1128,18460,1554,330,-208,2720,171243
-364,-1488,18340,1651,312,-183,2720,171264
-240,-1544,18328,1789,369,-158,2768,171285
-552,-1400,18420,2084,238,2,2736,171306
-352,-1208,18440,2062,232,117,2720,171327
-300,-1040,18428,2300,217,224,2784,171348
-372,-876,18488,2086,243,120,2736,171369
-336,-724,18548,1578,270,68,2704,171390
-344,-884,18464,1261,316,85,2736,171411
-380,-820,18420,1300,281,78,2704,171432
-400,-808,18424,1469,248,107,2816,171453
-400,-692,18472,1624,228,238,2736,171474
-352,-588,18440,1486,283,51,2720,171495
-308,-668,18500,1381,223,140,2736,171516
-352,-612,18508,1471,189,180,2768,171537
-300,-192,18464,1585,182,121,2816,171558
-300,-440,18488,1508,189,14,2704,171579
-264,-432,18504,1425,229,15,2720,171600
-288,-420,18444,1296,227,-22,2704,171621
-388,-304,18600,1049,182,-26,2736,171642
-304,-360,18452,790,247,-9,2640,171663
-316,-336,18424,661,215,-96,2656,171684
-288,-364,18448,623,248,-185,2768,171705
-252,-248,18536,595,244,-417,2704,171726
-380,-404,18420,579,289,-301,2672,171747
-288,-284,18556,554,307,-263,2704,171768
-344,-372,18428,532,287,-2,2704,171789
-348,-344,18416,561,262,68,2736,171810
-288,-336,18424,557,272,57,2736,171831
-332,-316,18432,538,263,75,2768,171852
-304,-340,18504,470,226,27,2656,171873
-484,-188,18516,384,333,338,2720,171894
216,208,18452,235,462,700,2704,171915
164,-616,18508,-649,340,24,2656,171936
672,972,18608,288,122,-86,2720,171957
-476,-876,19228,4093,-2748,-4582,2720,171978
-984,-380,19512,888,-349,-4922,2720,171999
-116,-932,18604,586,264,-3525,2720,172020
164,-1436,18524,542,367,-2613,2704,172041
-396,-1308,18496,526,342,-1467,2816,172062
-428,-864,18500,494,299,14,2704,172083
-236,-376,18408,490,368,65,2704,172104
-296,-396,18532,516,353,71,2672,172125
-188,-280,18436,495,328,84,2704,172146
-220,-372,18468,475,324,66,2704,172167
-180,-308,18488,482,296,63,2736,172188
-276,-304,18484,486,313,51,2736,172209
-232,-308,18428,502,331,42,2640,172230
-204,-324,18572,489,315,73,2720,172251
-164,-400,18472,501,337,24,2704,172272
-196,-348,18480,467,318,64,2720,172293
-252,-348,18436,533,333,63,2784,172314
-296,-340,18540,512,356,47,2704,172335
-240,-308,18528,493,304,61,2784,172356
-212,-328,18512,483,351,48,2672,172377
-144,-360,18452,515,322,58,2720,172398
-212,-292,18424,493,344,50,2656,172419
-296,-276,18448,486,328,56,2704,172440
-192,-292,18612,481,324,12,2672,172461
-256,-360,18496,477,314,57,2784,172482
-216,-384,18424,489,331,49,2736,172503
-224,-392,18428,467,353,72,2736,172524
-316,-316,18524,524,292,55,2720,172545
-308,-272,18452,485,364,49,2640,172566
-180,-276,18432,511,312,89,2704,172587
-232,-328,18368,502,333,40,2720,172608
-196,-468,18404,480,304,94,2736,172629
-260,-356,18440,483,350,50,2736,172650
-304,-296,18496,512,313,36,2720,172671
-300,-348,18548,637,197,26,2704,172692
-204,-348,18428,577,300,19,2736,172713
-244,-504,18408,535,260,-2063,2704,172734
-40,-360,18280,538,505,-2867,2720,172755
-228,-544,18448,570,257,-2394,2720,172776
-168,-152,18556,581,284,-1687,2720,172797
368,-1132,18560,616,292,-3084,2720,172818
-784,-344,18456,538,351,-1458,2720,172839
-792,-280,18392,460,174,124,2704,172860
-824,88,18668,447,20,1348,2720,172881
-852,-888,18472,427,-304,1615,2656,172902
-272,-480,18508,398,-477,2527,2704,172923
488,232,18020,438,-306,1646,2720,172944
1920,-2324,18080,435,108,2378,2720,172965
-324,-412,18364,513,68,351,2704,172986
12,-340,18464,492,-406,447,2720,173007
180,-372,18492,514,-414,644,2720,173028
64,48,18472,504,-437,907,2720,173049
352,644,18356,527,-1388,1281,2720,173070
896,-848,18420,507,-1390,1420,2720,173091
648,-340,18568,621,-1699,2390,2704,173112
-48,424,18608,517,-1145,1824,2720,173133
864,-616,18228,565,-1543,1385,2704,173154
44,-532,18504,564,-1542,798,2736,173175
704,-648,18300,602,-1361,374,2704,173196
356,-264,18524,561,-892,302,2656,173217
2024,-524,18456,497,-1054,294,2720,173238
580,-188,18784,559,-1486,-150,2656,173259
244,-432,18476,491,-1789,318,2736,173280
1064,-212,18360,578,-1755,1120,2720,173301
960,-256,18336,497,-1545,390,2672,173322
712,-420,18988,589,-2039,140,2768,173343
564,-132,18800,661,-3619,286,2736,173364
964,16,18608,811,-3475,1430,2704,173385
1920,-392,18688,848,-4708,1480,2720,173406
1904,-320,18404,755,-5494,986,2736,173427
2176,-268,17896,682,-4743,444,2720,173448
2308,-352,18320,693,-3618,439,2720,173469
2356,-380,18332,674,-3862,367,2768,173490
3184,-408,17880,730,-3740,369,2704,173511
2440,-128,18408,595,-3529,246,2720,173532
2584,-164,18552,690,-4316,333,2640,173553
3304,-116,18172,751,-4464,235,2736,173574
3836,32,17948,767,-4422,217,2736,173595
3424,-244,18588,925,-4767,740,2720,173616
3856,-108,18236,832,-6281,676,2784,173637
4392,-60,17472,784,-5431,529,2672,173658
4560,-328,17624,788,-3477,482,2784,173679
5172,-212,17544,651,-2909,-90,2768,173700
4780,-116,17624,687,-2318,174,2720,173721
5864,-304,17184,729,-1747,129,2736,173742
4556,-100,18680,734,-2109,318,2768,173763
4752,-128,17836,839,-3140,607,2768,173784
4696,-8,17720,810,-2656,631,2736,173805
4764,-128,17800,712,-1911,527,2704,173826
5104,-208,17880,834,-2409,652,2704,173847
5600,-104,17404,849,-2914,575,2720,173868
5700,-116,17512,727,-2800,363,2704,173889
5588,-36,17608,649,-3471,172,2720,173910
5804,-152,17256,722,-3330,405,2720,173931
6128,12,17180,1020,-2765,1058,2720,173952
6416,-24,17252,1031,-3293,1176,2736,173973
6600,-16,17400,1043,-3669,1030,2704,173994
6316,-372,17128,727,-3724,559,2720,174015
6880,-180,16780,955,-3058,759,2720,174036
7028,-260,16692,744,-1689,521,2736,174057
6848,-204,17248,542,-1848,79,2704,174078
6972,-180,16880,552,-2013,12,2704,174099
7316,-96,16620,594,-640,46,2768,174120
6868,-16,17220,673,-1221,9,2720,174141
7196,-104,17036,696,-2393,55,2768,174162
7356,-4,16576,619,-2104,38,2704,174183
7612,-80,16564,614,-1737,4,2720,174204
7708,8,16740,604,-1687,-67,2720,174225
7220,164,17112,485,-2000,-291,2704,174246
7660,-12,16828,570,-3077,-177,2720,174267
7824,-108,16336,657,-3263,-31,2704,174288
7804,-148,16724,665,-3145,56,2672,174309
7792,116,16824,756,-3967,274,2704,174330
8436,-28,16220,703,-4287,138,2768,174351
8552,-404,16168,872,-3499,285,2768,174372
8688,48,16024,764,-2790,171,2720,174393
8820,-100,16196,758,-3149,194,2736,174414
8768,-104,16044,752,-3592,296,2720,174435
9176,84,15512,684,-3660,18,2768,174456
9264,28,15796,647,-2797,2,2720,174477
9332,4,15784,678,-3395,19,2736,174498
9488,28,15540,621,-3041,7,2736,174519
9480,-8,15748,703,-3473,85,2720,174540
9612,-68,15664,736,-4316,63,2768,174561
9920,96,15180,744,-4914,30,2784,174582
10120,92,15044,726,-4379,12,2672,174603
10212,224,15200,779,-5217,60,2816,174624
10432,32,14824,963,-5365,262,2704,174645
10664,124,14636,972,-5626,235,2672,174666
10820,36,14312,1121,-6165,348,2720,174687
10952,-152,14568,845,-6466,46,2720,174708
11584,104,13456,785,-6431,-49,2720,174729
11680,4,13948,779,-6494,-45,2720,174750
11780,0,13508,804,-6306,-38,2704,174771
12092,100,13240,673,-5192,4,2704,174792
11964,188,13736,788,-6833,-28,2672,174813
12644,216,12560,795,-6784,-1,2720,174834
12876,116,12184,731,-5706,-9,2832,174855
12856,168,12280,704,-4473,36,2768,174876
12908,220,12308,737,-4605,73,2768,174897
12628,296,12528,1123,-4153,385,2736,174918
14104,-84,10780,1119,-3811,333,2640,174939
14012,12,10892,1206,-2849,480,2704,174960
13332,176,11772,1075,-2180,374,2704,174981
13280,356,12012,1586,-1342,782,2704,175002
13508,164,11652,652,-1886,43,2720,175023
13696,224,11252,640,-1876,65,2656,175044
13720,200,11128,600,-1011,36,2736,175065
13660,204,11232,560,-989,50,2736,175086
13740,228,11356,526,-1065,12,2736,175107
13656,228,11440,538,-1591,23,2720,175128
13596,212,11456,642,-2459,7,2656,175149
14004,212,10708,617,-2507,58,2784,175170
13824,188,11136,559,-1766,69,2704,175191
13988,136,10880,629,-2543,8,2704,175212
13972,200,11016,615,-3176,24,2704,175233
14380,208,10308,643,-2806,27,2720,175254
14284,236,10260,560,-1330,55,2704,175275
14164,124,10656,601,-1994,44,2736,175296
14192,224,10608,585,-2754,-46,2832,175317
14572,284,9748,586,-2142,45,2784,175338
14436,220,10116,626,-1716,40,2784,175359
14376,284,10344,629,-2240,38,2672,175380
14744,224,9420,590,-2383,52,2720,175401
14648,288,9688,520,-1605,4,2736,175422
14576,260,9812,425,-1865,-40,2640,175443
14596,188,9864,593,-2113,41,2720,175464
14764,204,9568,588,-3044,10,2704,175485
14896,260,9164,544,-2144,15,2720,175506
14960,292,9152,325,-1610,-133,2768,175527
15168,224,8476,-631,-2611,-573,2704,175548
14992,308,9512,171,-2776,-236,2704,175569
15088,336,8560,-187,-3282,-374,2704,175590
15352,260,8256,305,-1292,-75,2720,175611
14492,196,10264,-507,-1658,-467,2736,175632
14544,284,9792,-33,-2609,-284,2784,175653
14844,300,9352,567,-3412,-3,2784,175674
15532,292,7904,579,-3167,2,2704,175695
15328,280,8336,608,-2271,31,2704,175716
15380,336,8120,622,-3236,-19,2704,175737
15424,276,8060,629,-3341,-19,2672,175758
15640,312,7484,635,-3022,49,2736,175779
15740,292,7308,583,-1531,33,2736,175800
15640,244,7736,533,-697,38,2768,175821
15624,224,7536,505,-908,24,2784,175842
15508,232,7768,565,-1523,57,2720,175863
15732,288,7380,607,-1581,19,2784,175884
15688,316,7324,563,-1340,28,2736,175905
15736,328,7228,558,-1174,25,2720,175926
15628,312,7480,535,-1730,40,2704,175947
15468,368,7628,496,-3594,-7,2720,175968
16620,556,5196,-1225,-2125,-510,2720,175989
16204,324,6176,616,-1832,46,2704,176010
15964,324,6704,596,-669,50,2768,176031
15652,328,7156,582,-1813,35,2816,176052
15924,284,6496,596,-2778,49,2656,176073
15888,280,6408,651,-2641,34,2720,176094
16124,300,5948,603,-1810,49,2736,176115
16060,320,6048,575,-62,50,2736,176136
15728,264,6928,539,-1226,43,2656,176157
15936,372,6280,616,-3303,1,2720,176178
16440,368,5208,625,-2006,45,2736,176199
16188,240,5800,551,-423,19,2672,176220
16096,328,5676,498,-326,34,2736,176241
16524,196,5076,8,218,-57,2816,176262
15880,-4,6576,-669,1596,-182,2720,176283
15928,-268,6724,3404,4164,814,2720,176304
13460,264,5036,4367,7003,1193,2704,176325
16740,468,3492,1805,6306,450,2736,176346
15192,260,8136,548,220,85,2720,176367
15984,252,6636,567,-2399,11,2672,176388
15892,308,6776,544,-1323,51,2768,176409
16240,340,5664,538,-249,51,2768,176430
16128,348,5936,458,1032,92,2768,176451
15704,300,7092,490,-119,47,2640,176472
16016,396,6248,571,-1735,66,2720,176493
16116,336,6028,595,-725,62,2704,176514
16188,304,6036,613,-228,48,2736,176535
15936,248,6404,1700,-1212,381,2720,176556
15772,372,6848,668,-2961,39,2672,176577
16204,252,5672,639,-4508,-1,2720,176598
16496,320,4940,690,-2121,72,2736,176619
15988,528,6480,1976,-4133,222,2784,176640
12092,124,7184,-343,-7240,-394,2704,176661
16392,-684,6584,-750,-5120,-274,2720,176682
16280,528,4172,-237,-4771,-137,2736,176703
15844,1132,2572,650,-7382,-107,2736,176724
14632,1012,1200,1014,-9546,-240,2720,176745
17816,-200,3732,-1411,-7173,57,2656,176766
16592,616,3904,-1048,-5997,-153,2704,176787
16784,128,3512,90,-3691,-36,2672,176808
16684,336,2904,626,-2431,33,2816,176829
16660,332,2752,589,-2039,39,2736,176850
16312,292,3336,575,-3239,34,2704,176871
16780,340,2044,-1070,-2561,-84,2704,176892
16968,364,1624,541,-1582,40,2784,176913
16740,352,2104,431,-12,51,2704,176934
16168,492,2688,-1539,-1923,25,2736,176955
16664,96,3168,-609,-2712,1,2672,176976
16612,-284,2336,-1145,-1861,-6,2720,176997
15932,576,2108,-528,-1691,54,2736,177018
16676,288,1868,-506,-76,51,2672,177039
16464,324,2660,-1278,-477,60,2720,177060
16280,460,2524,-2400,-568,64,2720,177081
16652,-108,2516,-1443,-1393,98,2736,177102
16280,816,104,191,-760,64,2704,177123
16472,740,1036,455,-599,20,2720,177144
16820,288,1428,528,927,80,2768,177165
16408,160,2564,1333,657,81,2720,177186
16452,364,2324,598,-269,67,2736,177207
16612,304,1848,776,-1084,3,2704,177228
16548,44,2024,1084,-417,13,2704,177249
16552,184,2172,1882,-1313,-29,2816,177270
16376,304,2476,614,-2918,34,2736,177291
16740,288,1376,626,-3753,23,2720,177312
16556,328,1356,748,-3349,6,2720,177333
16668,288,856,658,-3357,-16,2736,177354
16484,432,1244,623,-2800,23,2672,177375
16460,244,1084,657,-4325,-14,2768,177396
16628,288,28,742,-3327,25,2672,177417
16220,668,-580,634,-3074,37,2704,177438
16560,956,236,-402,-5469,168,2704,177459
17272,-176,1420,-99,-4515,128,2784,177480
16160,544,-1620,-574,-5578,180,2704,177501
16592,92,-544,429,-4409,42,2704,177522
16344,740,-1420,10,-4445,105,2736,177543
17720,-264,952,-897,-4494,300,2720,177564
16492,248,-1524,-188,-3464,175,2720,177585
16720,204,-800,-603,-3391,268,2704,177606
16436,-92,-1064,224,-3103,115,2784,177627
16476,236,-1696,430,-2467,72,2736,177648
16212,364,-2352,288,-2220,99,2720,177669
16236,276,-2720,-312,-34,245,2720,177690
16536,360,-1104,-354,-638,290,2704,177711
16516,-24,-1580,92,-1083,117,2720,177732
16532,184,-2092,391,-1366,31,2704,177753
17356,868,-2268,490,-1026,-434,2720,177774
15876,780,-2668,691,347,-905,2736,177795
15944,360,-3184,1019,-733,-1096,2768,177816
16132,764,-1496,127,-2457,-587,2704,177837
17124,468,-1208,127,-1314,-727,2704,177858
16332,24,-3280,751,-580,-842,2736,177879
16176,92,-3064,158,-2975,195,2736,177900
16548,680,-1664,90,-2326,782,2736,177921
16300,912,-2304,-422,-1839,490,2640,177942
15920,584,-2452,71,-1033,159,2640,177963
16076,376,-3008,386,-2143,338,2640,177984
15756,280,-3104,495,-1887,424,2720,178005
15736,212,-3192,698,-2505,761,2736,178026
16052,640,-3048,880,-2731,664,2784,178047
15892,728,-3540,1046,-2477,405,2704,178068
15488,532,-4380,1106,-3095,127,2736,178089
15032,576,-3748,1205,-4665,38,2784,178110
15876,64,-2220,382,-3670,311,2720,178131
16420,-296,-2984,390,-1636,441,2720,178152
15316,36,-4296,458,-2078,1099,2704,178173
14984,844,-4896,1154,-2930,751,2672,178194
14956,936,-4268,555,-3588,516,2720,178215
15144,536,-4168,474,-2813,-9,2720,178236
14904,-296,-4576,845,-3164,-154,2720,178257
15092,-528,-5188,740,-2660,415,2704,178278
14792,148,-6052,1078,-2276,425,2704,178299
14636,548,-5592,1902,-4052,-35,2704,178320
15488,652,-4468,2207,-4387,-563,2720,178341
15312,296,-4560,1447,-2952,-899,2768,178362
15264,-340,-5136,1395,-2139,-921,2720,178383
14572,-588,-6592,1371,-1628,-389,2736,178404
14288,-232,-6884,1298,-2199,-157,2720,178425
15260,324,-6292,1855,-4338,123,2816,178446
15784,692,-5060,1536,-4311,-328,2656,178467
14800,568,-6128,1568,-3582,-1076,2704,178488
14160,736,-6672,941,-3116,-843,2720,178509
13944,472,-8052,1237,-4606,-1360,2720,178530
14448,440,-7116,1209,-6742,-1402,2736,178551
14944,156,-6124,1160,-6625,-1070,2656,178572
14812,-160,-6704,1314,-7061,-654,2640,178593
13380,-376,-8484,1472,-6752,-504,2768,178614
12544,-196,-8360,886,-7701,156,2736,178635
13500,4,-7188,633,-4821,536,2704,178656
13512,32,-7236,-302,-1354,1066,2736,178677
13460,72,-7692,-15,-259,789,2720,178698
12788,124,-8892,538,-290,372,2656,178719
12868,316,-9080,935,-1288,-67,2768,178740
12388,-28,-8500,527,-1621,277,2720,178761
14048,220,-8008,406,-1065,431,2736,178782
13732,220,-8472,818,-848,168,2816,178803
12948,160,-9884,1402,-2137,-63,2784,178824
12300,144,-9344,1346,-3174,-82,2736,178845
13324,432,-8548,1045,-3278,24,2720,178866
12816,-20,-8744,995,-2504,110,2704,178887
12188,-308,-9424,1444,-3547,244,2720,178908
11676,-8,-9804,1574,-3783,283,2720,178929
11648,572,-10064,1615,-5512,484,2720,178950
12076,628,-9048,908,-6297,185,2720,178971
12796,284,-8972,314,-4984,-141,2656,178992
11676,-704,-9508,-29,-4888,-475,2672,179013
10816,-1228,-10432,632,-3053,-309,2704,179034
11120,-704,-10120,598,-3618,222,2704,179055
11808,-128,-9660,858,-2423,140,2704,179076
11524,268,-10048,327,-3144,39,2704,179097
11128,464,-10156,398,-2590,-289,2656,179118
11608,224,-10116,599,-2841,-735,2720,179139
11312,-380,-10656,564,-2668,-444,2704,179160
11120,-584,-10792,1199,-3019,77,2720,179181
10724,-444,-11504,1009,-2722,761,2784,179202
10796,-12,-11396,686,-3108,766,2768,179223
10728,360,-10968,833,-2312,62,2704,179244
10364,264,-11196,533,-2194,-594,2656,179265
10208,220,-11308,323,-1968,-941,2720,179286
9408,-92,-11272,-367,-2115,-976,2736,179307
9904,-208,-11760,-245,-1738,-955,2704,179328
10284,-360,-11280,-41,-2278,-932,2704,179349
10636,-316,-11592,-225,-1981,-826,2720,179370
10428,-484,-11652,383,-2126,-801,2736,179391
10156,-408,-11408,594,-2099,-556,2704,179412
9420,-232,-11796,1018,-2611,-407,2704,179433
9316,228,-11724,393,-1833,-54,2720,179454
9352,516,-11788,418,-2059,-370,2736,179475
9444,508,-11972,1,-2167,-454,2656,179496
9704,332,-11888,-123,-2106,-522,2640,179517
9440,116,-11932,-157,-2033,-384,2736,179538
8884,152,-12532,316,-2777,-307,2656,179559
9120,528,-11948,488,-2772,115,2720,179580
8996,716,-12416,641,-2724,117,2672,179601
8816,628,-12180,678,-3045,-249,2736,179622
8004,284,-12368,601,-3354,-190,2720,179643
8332,152,-12292,502,-3467,45,2736,179664
8408,32,-12396,901,-3294,122,2704,179685
8160,96,-12956,1146,-3429,417,2736,179706
8748,492,-12848,1612,-3876,54,2720,179727
7972,236,-12808,1323,-4560,-411,2720,179748
7624,72,-12984,865,-3890,-129,2768,179769
7440,-228,-13000,1502,-4231,-133,2736,179790
6836,-392,-12808,1474,-4712,202,2720,179811
7164,-440,-12620,866,-2635,1028,2736,179832
6980,-132,-13344,839,-2362,946,2736,179853
6616,108,-13772,1121,-2992,723,2720,179874
6864,364,-12756,781,-2825,755,2704,179895
6804,204,-13220,491,-2295,512,2720,179916
6412,-264,-13804,661,-1862,575,2720,179937
6604,-372,-13912,553,-1286,964,2656,179958
6832,-84,-13188,723,-1411,1016,2720,179979
6116,76,-13544,526,-1104,1011,2720,180000
5904,192,-13620,526,-1587,838,2704,180021
6356,-8,-13752,498,-1518,667,2720,180042
6020,-216,-13464,596,-1860,588,2672,180063
6072,-356,-13676,845,-1389,811,2720,180084
5760,-372,-14220,1087,-1903,1021,2736,180105
5648,232,-14120,717,-2119,1083,2720,180126
6140,404,-14076,502,-2007,607,2736,180147
5688,-108,-14192,84,-1883,381,2704,180168
5760,-804,-14172,-116,-1723,323,2720,180189
5368,-992,-13696,284,-1751,466,2672,180210
5748,-268,-13484,463,-1612,760,2704,180231
5916,4,-13748,576,-1038,721,2768,180252
4960,-300,-14024,601,-1552,668,2704,180273
5284,-144,-14032,614,-1952,437,2704,180294
5356,72,-13964,490,-1941,184,2704,180315
4908,-52,-14080,459,-2107,-29,2720,180336
4692,-360,-13896,445,-2205,-217,2704,180357
4752,-632,-13776,586,-2190,-154,2736,180378
4228,-504,-14092,483,-1604,238,2720,180399
3984,-24,-14420,332,-1840,327,2720,180420
4100,-12,-14164,196,-1839,217,2784,180441
4596,112,-14168,76,-1573,317,2720,180462
4052,-268,-15136,330,-2282,59,2720,180483
4120,-36,-14860,537,-2994,-206,2736,180504
3848,-252,-14252,568,-3483,-649,2656,180525
3608,-556,-14140,504,-3436,-763,2704,180546
3920,-588,-13952,9,-2125,-126,2704,180567
3968,-700,-14304,334,-1766,-194,2704,180588
3560,-868,-14332,578,-1107,99,2704,180609
3008,-476,-14360,933,-1427,304,2736,180630
3548,496,-14372,806,-1627,578,2720,180651
3280,504,-14788,225,-789,639,2736,180672
2892,288,-15232,245,-1415,315,2704,180693
2476,-216,-14844,558,-1869,196,2720,180714
2580,-276,-14112,423,-2492,441,2672,180735
2792,188,-14212,290,-2627,502,2720,180756
2752,76,-14476,-387,-2441,218,2720,180777
2160,-404,-14216,-570,-2470,39,2640,180798
2428,-972,-14172,-302,-2318,-43,2720,180819
3132,-828,-14608,330,-1731,457,2704,180840
3020,-468,-14656,856,-1097,751,2672,180861
1972,240,-15036,834,-1271,722,2656,180882
1652,316,-14944,618,-1623,351,2672,180903
2344,352,-14180,404,-1285,524,2736,180924
1624,-672,-14708,879,-1349,184,2704,180945
2100,-788,-14084,1181,-1084,708,2704,180966
2068,-648,-14392,1673,-1039,725,2656,180987
1560,-508,-14704,1886,-986,832,2672,181008
1544,-348,-14332,1867,-1442,652,2672,181029
1716,44,-14656,1296,-1238,363,2736,181050
1444,-400,-14564,773,-1316,14,2704,181071
2024,-488,-14444,802,-759,177,2784,181092
828,-860,-14924,1148,-809,343,2720,181113
1116,-192,-15324,1160,-857,742,2704,181134
1628,132,-15156,792,-370,672,2704,181155
1284,-168,-15044,564,-386,394,2704,181176
1056,-688,-15072,296,-424,456,2720,181197
1072,-800,-14812,317,-286,716,2704,181218
1080,-180,-14508,105,-690,433,2720,181239
1556,-244,-14432,-352,-470,-65,2672,181260
1132,-1136,-14516,-387,-263,45,2736,181281
832,-1460,-14684,483,-337,-24,2736,181302
1316,-816,-14472,977,402,466,2720,181323
988,-312,-14900,1049,484,514,2736,181344
1664,-76,-14732,831,1037,295,2720,181365
564,-268,-15268,470,449,-115,2640,181386
796,-504,-14556,353,526,-108,2656,181407
724,-612,-14816,318,914,181,2720,181428
564,-620,-15012,507,428,-65,2736,181449
1160,-164,-14892,433,223,144,2720,181470
1056,-176,-14756,187,17,-136,2720,181491
1728,-276,-14692,172,145,-303,2704,181512
1428,-816,-14556,309,169,-126,2720,181533
1392,-468,-14636,520,-147,-62,2720,181554
1168,-312,-14508,660,-584,-26,2704,181575
1296,-232,-14104,561,-419,57,2720,181596
596,-324,-14900,696,-295,175,2784,181617
788,-340,-14728,704,-432,242,2704,181638
1164,-420,-14596,652,-360,181,2720,181659
712,-564,-14784,451,-392,432,2720,181680
1012,-400,-14900,652,-623,76,2720,181701
1084,-856,-14844,676,-100,151,2640,181722
832,-1040,-14880,858,-102,131,2704,181743
896,-580,-14712,700,464,324,2768,181764
476,-572,-14844,663,372,192,2720,181785
784,-396,-14852,570,514,230,2720,181806
524,-476,-14820,479,87,-190,2640,181827
1148,-532,-14196,173,438,38,2640,181848
544,-1084,-14724,390,460,-63,2704,181869
896,-996,-14800,718,373,178,2704,181890
1272,-480,-14216,725,901,129,2656,181911
540,-460,-14932,608,644,-74,2704,181932
764,-236,-14900,323,681,-62,2736,181953
1376,-336,-14532,233,756,-344,2704,181974
936,-676,-14464,280,1479,-41,2736,181995
412,-680,-15180,543,1242,11,2736,182016
1280,-200,-14752,499,1291,215,2720,182037
1688,-132,-14428,364,2076,175,2656,182058
1588,-748,-15780,306,3401,624,2704,182079
1300,-608,-15744,226,2098,328,2704,182100
2156,-456,-14740,136,2978,666,2720,182121
2280,-332,-13576,-33,4971,649,2768,182142
1336,-952,-14584,-760,6545,1054,2704,182163
832,-1180,-14212,87,3524,124,2704,182184
1380,-756,-14468,593,3331,814,2784,182205
2312,228,-15000,175,3687,672,2720,182226
2676,564,-15236,-181,3206,148,2736,182247
3080,24,-14700,23,3274,-75,2704,182268
2656,-444,-15356,-545,3457,-636,2720,182289
2368,-564,-14608,-293,2635,-376,2720,182310
2592,-220,-13924,-27,3186,-157,2720,182331
2968,-140,-13228,-95,4738,414,2672,182352
3404,52,-14096,-880,7474,631,2656,182373
3668,-52,-15852,-25,6323,-74,2640,182394
2812,-444,-14728,219,2874,-1177,2704,182415
3900,4,-13648,-272,5453,-719,2720,182436
4680,448,-13460,-724,6496,-485,2736,182457
5268,148,-13636,-723,8910,-328,2704,182478
4196,156,-15840,-654,5309,-1018,2672,182499
4296,128,-13756,-392,4772,-1063,2704,182520
5696,284,-12916,-376,6724,-66,2736,182541
6812,680,-12424,-1388,8364,419,2720,182562
6452,884,-14304,869,7615,-1078,2736,182583
4708,-148,-13496,2624,4220,-1472,2704,182604
5772,-1116,-15244,869,6380,-67,2736,182625
6492,-60,-13664,684,4598,307,2720,182646
7884,1300,-12768,995,6028,575,2720,182667
8292,1312,-13032,1110,4689,-655,2704,182688
7452,28,-14224,1184,5113,-1775,2672,182709
5148,-576,-15104,321,3221,-626,2704,182730
7332,384,-12576,100,4018,166,2736,182751
8148,420,-12224,-130,5772,209,2784,182772
9588,168,-12228,-1199,7111,-149,2704,182793
8840,-488,-12832,77,5927,-979,2704,182814
7392,-784,-12940,619,6515,194,2720,182835
7528,400,-12256,403,6760,1476,2704,182856
9664,1288,-11532,-217,9570,1763,2768,182877
10828,1464,-12368,-1485,9708,45,2704,182898
9744,172,-11852,-766,7903,-1189,2720,182919
8832,-400,-11900,-517,7074,-1351,2736,182940
9616,-176,-10888,-283,7968,-397,2736,182961
11416,976,-9572,153,8806,54,2768,182982
12200,1180,-8580,715,9670,-799,2736,183003
12880,728,-9368,1214,11420,-3246,2704,183024
11164,316,-11640,3388,9071,-5270,2672,183045
7216,-380,-13368,1341,5731,-2221,2720,183066
10608,1096,-9676,-917,5697,532,2704,183087
13568,3016,-7252,-765,7726,-90,2672,183108
15296,2504,-7900,196,8849,-1227,2736,183129
13312,1440,-9572,1865,5888,-4064,2736,183150
10408,212,-10900,1778,5156,-3226,2720,183171
11484,300,-10136,6,4086,8,2736,183192
13384,1156,-6708,412,5467,1391,2736,183213
15024,1120,-6428,1126,8957,2464,2656,183234
14040,1120,-10040,861,7675,1091,2640,183255
12488,808,-9704,928,5613,1003,2704,183276
12932,1232,-8276,-24,5781,1705,2704,183297
14252,1888,-6176,-600,7192,1716,2672,183318
15596,1860,-4552,-979,10018,2256,2736,183339
16040,540,-7540,711,10252,-739,2640,183360
12136,-776,-8932,1710,6745,-1044,2704,183381
12840,-124,-8156,-422,6278,1642,2768,183402
15228,996,-4332,-657,6326,2202,2720,183423
16728,1292,-2788,-776,9019,1944,2704,183444
16960,596,-4336,1014,9217,-37,2656,183465
13700,-624,-6136,2500,6715,-618,2704,183486
13592,-440,-5316,965,6412,2153,2784,183507
15276,688,-3352,879,6519,2787,2736,183528
15888,1180,-2716,-433,8170,1972,2720,183549
16592,1172,-2768,-307,9440,1059,2656,183570
15756,668,-3760,1788,7588,-254,2720,183591
14840,-168,-3956,2369,6145,-295,2656,183612
14800,76,-3712,1350,5817,660,2640,183633
16396,632,-2328,366,5950,912,2720,183654
17016,1124,-1052,-85,7126,302,2768,183675
17548,644,-352,888,7890,-281,2736,183696
16872,-292,-2080,2364,6872,-1659,2704,183717
14996,-760,-3568,2679,5742,-972,2736,183738
15084,-248,-2584,1371,3786,901,2704,183759
16820,892,124,812,4050,1734,2736,183780
17384,1920,1772,469,6171,1440,2720,183801
18132,1236,1304,1102,8766,-35,2784,183822
17120,-56,-620,2884,8660,-1496,2720,183843
15100,-252,-2112,2560,6375,-817,2720,183864
15788,-52,-376,666,5577,643,2720,183885
16760,632,1224,-516,6281,1629,2672,183906
17660,768,2740,-813,7894,1118,2720,183927
17780,252,2696,-99,9989,385,2720,183948
16852,-364,2572,-281,11355,-368,2736,183969
16368,-564,2048,-442,12589,200,2784,183990
16032,-112,2432,-611,10733,1114,2704,184011
16416,288,3372,-434,8738,1361,2720,184032
16664,320,4488,553,9444,897,2704,184053
16540,852,4040,1375,8504,90,2720,184074
16220,696,4468,1100,8034,-378,2640,184095
16436,520,4540,1293,8460,-1210,2656,184116
15720,112,4428,985,8779,-1609,2656,184137
15380,192,4684,929,6588,-1326,2672,184158
15808,36,6132,1062,5891,-1166,2736,184179
15680,444,6136,1290,7028,-886,2704,184200
15848,712,6640,234,7865,-20,2784,184221
16300,232,6952,594,7347,10,2704,184242
16072,-156,7476,2108,5743,-460,2704,184263
14928,-124,6940,2225,6243,466,2656,184284
15180,764,7088,39,5551,1552,2704,184305
16300,1120,8516,-734,5117,1508,2720,184326
16664,692,9828,193,5819,571,2768,184347
16228,340,9412,1210,6849,21,2736,184368
15444,-100,8760,733,7298,447,2768,184389
14856,-360,8192,582,8036,975,2704,184410
14696,472,8400,-69,7447,1296,2720,184431
14884,1032,9472,-302,6603,792,2720,184452
15132,368,10960,220,6301,89,2656,184473
14836,-116,11340,989,7765,-150,2640,184494
13844,-180,10080,765,8703,205,2704,184515
13416,396,9252,-377,8622,995,2704,184536
13396,1096,9568,-733,6916,781,2640,184557
13636,800,11368,-250,6287,-63,2672,184578
13756,-180,12672,428,6839,-607,2736,184599
12792,-128,11980,232,7815,-196,2720,184620
13128,-308,11988,487,9111,95,2704,184641
13096,-376,11508,1365,7210,-108,2720,184662
13052,452,12852,671,6457,160,2608,184683
13732,160,14836,423,7324,98,2640,184704
12876,16,13828,1788,8227,-219,2720,184725
11352,1224,11460,2229,8018,-126,2736,184746
11032,1772,12048,325,6374,-51,2720,184767
11428,260,13392,326,6356,-464,2720,184788
11344,-252,13876,199,5675,-670,2656,184809
11272,-692,13984,649,5972,-471,2640,184830
11492,24,14620,652,5214,-449,2720,184851
11284,180,14668,775,5915,-635,2704,184872
10864,40,14632,827,5435,-939,2704,184893
11040,560,15592,830,6403,-847,2704,184914
10988,948,15580,1444,6828,-1292,2720,184935
10460,472,15104,1365,6419,-1226,2720,184956
9816,532,15200,877,6378,-701,2720,184977
10092,1776,15860,540,6458,-863,2720,184998
10036,1256,16496,793,6892,-1631,2672,185019
9332,648,15972,1164,7179,-1669,2720,185040
8476,152,15596,570,6986,-1110,2704,185061
8476,1248,15548,708,6064,-991,2704,185082
8136,952,16072,720,6613,-1037,2704,185103
8216,744,16548,754,5930,-1120,2704,185124
7444,996,15644,999,5302,-1096,2704,185145
6900,1060,15432,1404,4503,-1155,2704,185166
6964,892,15468,1706,3062,-1455,2736,185187
7936,1352,17492,1491,2719,-1315,2816,185208
7944,568,18004,2300,4768,-1295,2736,185229
7044,0,16320,1195,4107,8,2720,185250
6780,880,16096,337,2603,824,2640,185271
7072,1924,16904,850,1692,343,2736,185292
6772,1912,16944,1217,3116,-258,2720,185313
6932,1960,16564,871,3061,-546,2720,185334
6400,1164,16792,211,3628,212,2656,185355
6760,1692,16728,-1111,2987,963,2704,185376
6936,1472,17872,-1740,3854,1264,2720,185397
6584,996,17312,-1090,2937,667,2704,185418
6232,908,17168,-1476,2868,904,2640,185439
6732,1008,18244,-1220,2374,689,2656,185460
6360,1268,17956,-930,2913,145,2720,185481
5712,1564,17124,-1403,2552,-33,2736,185502
5604,-2080,18224,-2701,3406,679,2656,185523
4436,-2636,15848,-4514,4417,2550,2704,185544
5940,940,17676,-2824,1136,1702,2704,185565
5564,892,17848,-89,1281,16,2704,185586
5204,912,17136,-2952,2747,810,2672,185607
7008,-568,23128,-2252,11164,955,2672,185628
5232,604,17504,-2947,8188,1166,2704,185649
4112,-260,17104,-2015,5419,837,2816,185670
3928,-1068,17692,-1389,5737,791,2720,185691
3840,-964,18220,382,6344,417,2656,185712
3848,-12,17852,326,5416,127,2640,185733
3372,-52,17088,-1363,4492,-147,2704,185754
3424,144,17520,-733,4638,-373,2656,185775
2964,-944,18400,1705,4501,-487,2736,185796
3012,-1172,18160,53,6271,-113,2656,185817
2172,-960,17856,-1332,7396,-222,2704,185838
2124,-792,18732,-385,7935,-473,2768,185859
1860,-1340,17880,1714,3098,-721,2640,185880
2236,-360,18360,125,1204,385,2720,185901
2896,-624,17748,-1709,3020,379,2720,185922
2292,-900,17884,-1625,2619,-706,2736,185943
1708,-404,18328,-1741,3838,-1237,2656,185964
1844,272,18704,-1553,6270,-1806,2720,185985
676,-512,17952,-1543,10913,-3639,2720,186006
-2956,-2564,17936,-726,8722,-721,2704,186027
1080,-2180,18396,-362,7597,1376,2736,186048
-964,-2064,19060,1560,6289,1828,2640,186069
-1032,-1424,18468,3755,5668,802,2704,186090
-604,-136,17880,5437,4753,1337,2720,186111
-412,252,17912,3600,8892,2475,2704,186132
-1744,-12,19308,-1728,10445,2702,2720,186153
-2560,-1216,19312,-4024,8878,1929,2720,186174
-984,-1388,18712,-4640,7434,1824,2704,186195
-792,-1164,17672,-3592,6325,269,2672,186216
-2192,-1548,18764,-5337,3089,-5856,2672,186237
-1032,-2252,18044,-4342,4791,-2125,2704,186258
-2308,-2312,18520,-3975,8007,2587,2704,186279
-4568,-3020,16732,91,7171,1559,2704,186300
-3044,-2036,17224,2737,4866,318,2656,186321
-2920,-1680,17176,3548,4333,1259,2720,186342
-4044,-2172,18040,3642,4395,2129,2608,186363
-4020,-2188,18224,3053,3166,1833,2704,186384
-4292,-1988,18380,4056,3146,1629,2720,186405
-4512,-1512,18316,4721,5065,2122,2704,186426
-4840,-672,17720,3500,5770,891,2704,186447
-4220,-776,17752,1666,5691,1038,2720,186468
-3856,-936,17528,627,5710,1975,2720,186489
-4620,-1020,17340,-563,6496,2804,2656,186510
-5500,-788,16728,-217,7983,3261,2656,186531
-6852,-1260,17372,1759,9019,3376,2720,186552
-7404,-944,16684,5027,8267,2491,2720,186573
-6540,-452,17444,6545,7611,772,2704,186594
-5988,400,16776,3952,7610,1008,2720,186615
-7252,-92,15592,4060,9187,1360,2736,186636
-8100,-8,16828,5648,4959,2329,2656,186657
-10028,-520,16312,4945,1733,-919,2704,186678
-7660,284,16344,3030,3809,-1355,2720,186699
-6808,384,16376,1217,3859,547,2720,186720
-7240,192,16428,-718,4697,1030,2720,186741
-7820,348,16088,-1321,7050,2072,2672,186762
-8904,784,15512,-600,5558,2191,2720,186783
-8888,436,16004,-46,5200,3224,2736,186804
-8916,276,15960,-210,4680,2517,2704,186825
-9548,440,16336,248,3594,747,2704,186846
-9504,844,16064,-428,4214,-271,2704,186867
-9568,204,15480,-579,4692,-445,2656,186888
-9572,356,15124,-427,3860,-1991,2656,186909
-9964,-52,14936,-795,3593,-3289,2736,186930
-10072,-108,15356,-1102,5600,-2110,2640,186951
-10196,164,14908,-1076,5242,-205,2720,186972
-9736,68,14912,-1300,5202,780,2672,186993
-10148,-96,14700,-1280,6018,-506,2672,187014
-10076,-72,14460,-1996,9431,-2450,2704,187035
-10704,-1112,14004,-2675,12370,-1439,2704,187056
-11500,-52,13232,-3446,11905,-1265,2656,187077
-11148,-292,14244,-1460,8727,-231,2736,187098
-12256,-708,12684,-639,7968,-686,2656,187119
-12520,-884,13356,-500,7651,-790,2736,187140
-11640,-620,12100,-593,8345,-505,2704,187161
-11604,-1160,11724,-1109,8117,-303,2720,187182
-10160,-1192,11752,-646,7817,-2256,2736,187203
-12284,-1104,11656,-374,6797,-3728,2720,187224
-13468,-1004,11432,138,5853,-3239,2720,187245
-14212,-1408,11800,352,4676,-2658,2720,187266
-13472,-1564,11320,578,4683,-1699,2704,187287
-13828,-1268,11184,771,4498,940,2672,187308
-13016,-2032,11432,1207,4939,1551,2656,187329
-13032,-1200,10000,-139,6340,-62,2736,187350
-14792,-1580,10296,-563,7486,966,2656,187371
-13804,-1288,10152,-964,7841,2834,2704,187392
-14244,-1272,9964,23,5323,4202,2720,187413
-15552,-944,9608,-863,5919,4412,2656,187434
-14336,-776,9800,-527,6889,2495,2656,187455
-14864,-1732,9512,-834,6202,2875,2720,187476
-15044,-1056,9268,-167,4163,2617,2720,187497
-14608,-688,8952,92,3375,1077,2736,187518
-14808,-640,8408,12,4193,293,2640,187539
-14928,-168,7912,-816,3840,711,2736,187560
-14996,-888,8592,-708,3258,1168,2704,187581
-15040,-724,8408,-479,4747,611,2640,187602
-15548,-1376,8428,-345,4422,774,2784,187623
-14100,-688,7856,15,4243,403,2784,187644
-14500,-604,7120,-654,4652,-594,2720,187665
-15852,-804,6616,-2534,6497,-2360,2720,187686
-15624,-1648,6068,-2703,7071,-1569,2704,187707
-15716,-1704,6984,-2002,6053,-514,2736,187728
-14924,-1444,6912,-604,5217,-500,2768,187749
-15184,-1204,5884,-293,6255,-1260,2704,187770
-15948,-748,5444,-1619,6629,-1634,2704,187791
-16008,-1228,6788,-978,3113,-575,2736,187812
-15008,-1476,7008,738,336,33,2656,187833
-15476,-1792,6348,1502,-1132,72,2656,187854
-16424,-1152,5668,1614,-718,-17,2848,187875
-15944,-1060,5772,1381,-1398,231,2720,187896
-15488,-1540,6248,1774,-2407,142,2720,187917
-15396,-1564,6628,2738,-4332,269,2736,187938
-15336,-948,6540,3399,-6237,-235,2704,187959
-15728,-1028,6388,3751,-6806,-874,2704,187980
-14960,-1076,6912,3344,-5855,-798,2704,188001
-14880,-1412,7556,3320,-5085,-621,2768,188022
-14620,-1192,7580,3301,-4958,-464,2656,188043
-15328,-1352,8088,3914,-6078,-124,2704,188064
-15920,-872,8376,3696,-6131,-315,2704,188085
-15184,-1092,8628,3591,-4965,590,2768,188106
-14112,-1004,8916,3555,-3457,474,2704,188127
-14576,-788,8400,3031,-2275,237,2656,188148
-14528,-708,9088,2820,-2435,97,2720,188169
-14700,-304,8660,2027,-1015,159,2736,188190
-14624,-840,9088,1531,-308,179,2720,188211
-14464,-860,9184,1667,-564,378,2784,188232
-14720,-664,8964,1632,-688,408,2768,188253
-13984,-448,9048,1374,-543,517,2640,188274
-14880,-492,9064,921,-617,73,2704,188295
-14396,-588,9268,1018,-593,238,2736,188316
-14348,-704,9244,1114,-756,199,2736,188337
-14104,-632,9376,1061,-857,236,2768,188358
-14288,-620,9664,1037,-973,359,2704,188379
-14732,-684,9696,1069,-1176,427,2816,188400
-14336,-472,9388,703,-512,469,2704,188421
-13884,-380,9268,354,80,141,2704,188442
-14236,-520,9664,-19,72,-25,2720,188463
-14924,-852,9684,318,-163,301,2704,188484
-14364,-456,9660,501,342,704,2704,188505
-14300,-416,9640,235,684,755,2704,188526
-14040,-216,9236,-1,925,204,2672,188547
-14116,-416,9784,21,612,177,2720,188568
-14696,-492,9652,174,190,626,2736,188589
-14488,-432,9552,216,406,783,2720,188610
-14256,-60,9292,-50,560,691,2736,188631
-14136,-296,9628,-382,440,420,2656,188652
-14392,-280,9648,-354,-217,415,2720,188673
-14524,-424,9456,-323,-626,615,2672,188694
-14276,-424,9564,-25,-722,704,2704,188715
-14116,-420,9840,152,-893,501,2784,188736
-14128,-440,9736,432,-1794,150,2720,188757
-14472,-204,9836,460,-2529,-334,2720,188778
-14736,-436,10088,656,-3197,-4,2704,188799
-14212,-440,10028,1182,-4324,337,2704,188820
-13540,-500,10392,1307,-4683,366,2704,188841
-13708,-248,10336,1680,-5202,-20,2704,188862
-13872,-292,10644,1373,-4772,-430,2720,188883
-13724,-312,11056,1237,-3976,-612,2704,188904
-13456,-276,11168,1080,-3476,-543,2736,188925
-13120,-256,11044,669,-2885,-128,2704,188946
-13140,-100,11048,204,-2517,33,2816,188967
-13036,-404,11620,70,-2073,-307,2736,188988
-13252,-352,11460,18,-1414,-440,2720,189009
-13164,-228,11484,86,-1153,-222,2704,189030
-12972,-192,11532,-174,-878,-82,2768,189051
-13024,-400,11524,-357,-601,-255,2720,189072
-13004,-440,11600,-148,-509,-84,2656,189093
-12912,-552,11832,-62,-428,234,2720,189114
-13132,-508,11632,242,-456,365,2704,189135
-13124,-520,11788,289,-444,668,2704,189156
-12764,-456,11816,328,-603,486,2704,189177
-13076,-432,11724,54,-517,343,2720,189198
-13028,-484,11964,86,-511,384,2736,189219
-12868,-284,11860,84,-712,345,2672,189240
-12860,-500,12208,242,-1100,484,2736,189261
-12704,-472,12056,265,-1237,291,2672,189282
-13004,-388,12240,338,-944,74,2672,189303
-12924,-336,12136,202,-957,248,2720,189324
-12696,-172,11812,-85,-1047,344,2640,189345
-12524,-328,12160,-543,-1070,128,2640,189366
-12556,-504,12156,-775,-1384,179,2640,189387
-12568,-512,12500,-681,-1587,230,2784,189408
-12572,-840,12664,-344,-1781,52,2720,189429
-12324,-564,12180,-199,-1919,31,2720,189450
-12460,-464,12404,-789,-1564,129,2704,189471
-12064,-792,12504,-951,-1333,-39,2704,189492
-12136,-1088,12544,-925,-901,-180,2736,189513
-12080,-1012,12832,-376,-701,-458,2720,189534
-12116,-796,12848,-65,-1159,-257,2832,189555
-12076,-544,12748,116,-1329,-56,2736,189576
-12508,-560,12852,-50,-2240,-51,2704,189597
-11884,-400,12816,73,-3482,18,2736,189618
-12040,-820,13096,-500,-2894,-345,2736,189639
-12180,-1296,13504,226,-2912,-85,2720,189660
-11664,-1212,13876,1427,-2571,309,2720,189681
-11564,-648,13516,2181,-2854,568,2704,189702
-11244,-204,13640,2381,-4049,20,2720,189723
-11568,-428,13736,2698,-4492,220,2736,189744
-11352,-612,13804,2618,-3963,509,2720,189765
-10704,-572,13680,2325,-3165,249,2736,189786
-10448,-68,13752,1980,-3111,-462,2720,189807
-11092,188,13804,1657,-4078,-627,2704,189828
-10792,-180,14068,1602,-5004,470,2720,189849
-10816,-572,14324,1662,-5372,626,2672,189870
-10036,-544,14200,1111,-3679,-183,2736,189891
-10348,-312,14480,182,-2522,-665,2720,189912
-9984,-212,14960,29,-2552,-205,2720,189933
-10188,-56,14792,100,-4322,221,2720,189954
-9848,-280,14972,-279,-4380,847,2656,189975
-9264,-520,15212,-612,-4160,490,2720,189996
-9696,-616,15536,-1011,-3596,-264,2608,190017
-9564,-448,15404,-1027,-4027,8,2704,190038
-9320,-388,15452,-1470,-4621,522,2816,190059
-8700,-848,15804,-1247,-5072,1124,2704,190080
-8280,-864,15792,-1160,-4503,734,2736,190101
-8852,-804,16088,-1648,-3518,-83,2704,190122
-8788,-932,16624,-1071,-3118,317,2720,190143
-8112,-732,15944,-946,-3349,761,2720,190164
-8032,-780,15952,-1047,-3274,995,2704,190185
-7988,-948,16004,-1525,-3261,662,2704,190206
-7788,-964,16372,-1765,-2593,210,2656,190227
-7924,-964,16292,-1975,-2263,261,2656,190248
-7700,-1240,16564,-1893,-2317,309,2704,190269
-7732,-1380,16356,-1620,-2759,492,2720,190290
-7184,-1212,16028,-1572,-2968,431,2720,190311
-7528,-1616,16716,-1592,-3940,-252,2656,190332
-7568,-1436,16932,-1315,-3984,-304,2736,190353
-6800,-1296,16880,-667,-5187,273,2720,190374
-6604,-1584,17136,38,-6282,671,2704,190395
-5672,-1952,16788,941,-5936,761,2736,190416
-6236,-1952,17212,1255,-5718,-5,2704,190437
-5560,-1672,17140,2232,-6297,-388,2656,190458
-5624,-1308,17196,1968,-5184,-1228,2736,190479
-6024,-1144,17356,1871,-4290,-580,2720,190500
-5048,-1284,17756,2405,-4005,-35,2736,190521
-4984,-1280,17404,2728,-3122,350,2720,190542
-5140,-1172,17520,2488,-1834,-99,2720,190563
-4892,-924,17588,2198,-1611,-258,2720,190584
-4672,-616,17512,1811,-1766,-223,2704,190605
-4740,-576,17592,1584,-2164,109,2768,190626
-4588,-680,17736,1277,-2110,88,2704,190647
-4320,-1020,17900,1392,-2427,127,2704,190668
-4220,-624,17588,1153,-2127,-75,2672,190689
-4212,-584,17792,583,-2728,-199,2704,190710
-4088,-672,17920,58,-2694,-310,2704,190731
-4140,-1028,18096,-199,-2272,-771,2656,190752
-3852,-996,18064,184,-1935,-739,2720,190773
-3636,-1040,18196,949,-2465,-292,2720,190794
-3712,-948,18208,1522,-2589,-264,2656,190815
-3532,-660,17968,1076,-2690,-314,2720,190836
-3428,-716,17796,293,-2284,-621,2704,190857
-3224,-1000,18040,160,-2274,-685,2720,190878
-3024,-968,17940,425,-2658,-603,2672,190899
-2868,-800,17824,323,-3153,-277,2704,190920
-2556,-608,17852,-398,-2681,-64,2736,190941
-2832,-772,18052,-1247,-1913,-239,2672,190962
-2888,-1304,18428,-1539,-1624,-494,2720,190983
-2064,-1344,17792,-1233,-2001,-295,2656,191004
-2132,-1364,17972,-991,-2000,53,2704,191025
-2500,-1192,18232,-1463,-1771,-50,2720,191046
-2512,-1248,18168,-2775,-965,-273,2640,191067
-2148,-1352,17932,-3610,-771,-272,2656,191088
-1652,-1684,17968,-5114,-62,191,2672,191109
-1660,-1280,18280,-8336,642,292,2704,191130
-1840,-2380,18480,-13291,476,-469,2736,191151
-1572,-2052,18104,-18354,97,-1203,2816,191172
-2368,-4084,17716,-21498,174,-1257,2720,191193
-2288,-6736,17436,-20401,-390,-1095,2768,191214
-2008,-6456,18044,-19167,-2076,-1485,2704,191235
-2672,-7004,18004,-18335,-855,-2180,2720,191256
-2160,-8036,16652,-17407,-143,-1998,2768,191277
-1580,-8540,15620,-15825,-327,-1389,2720,191298
-1692,-9512,15160,-13474,-1038,-1359,2720,191319
-896,-9464,15072,-11204,-2687,-2074,2720,191340
-1284,-10008,15064,-10211,-2434,-3234,2784,191361
-1128,-9948,14708,-10527,-3530,-4120,2720,191382
-828,-10716,14436,-10440,-3643,-3686,2768,191403
-268,-11360,13756,-10374,-3456,-4296,2656,191424
104,-10996,13056,-10136,-4343,-5129,2736,191445
-300,-10988,13352,-10680,-3864,-5195,2736,191466
-492,-11796,13276,-12003,-2485,-4366,2832,191487
560,-12280,12788,-14145,-2134,-3371,2720,191508
1316,-12516,11924,-17167,-2617,-3307,2784,191529
1064,-12464,11472,-19440,-2142,-2673,2704,191550
668,-13480,10908,-20102,-941,-1476,2704,191571
700,-14900,9952,-20151,194,-1042,2736,191592
760,-15916,9000,-20476,953,-941,2656,191613
1116,-15984,7712,-21372,79,-616,2704,191634
708,-16316,7324,-20396,-2302,495,2704,191655
520,-15172,6732,-16816,975,2141,2704,191676
1036,-15812,5236,-13668,1003,2272,2736,191697
1264,-17184,4108,-11736,958,529,2704,191718
776,-17340,3500,-11041,783,-705,2720,191739
1012,-16136,3020,-9120,276,-375,2784,191760
776,-14976,3068,-5789,641,816,2704,191781
1728,-15168,2624,-2849,1491,394,2704,191802
1776,-16364,2400,-1636,1200,-945,2704,191823
1412,-16472,2536,-1761,417,-1754,2784,191844
1028,-16532,2500,-1213,433,-1474,2672,191865
1096,-15136,2616,1164,987,-472,2704,191886
944,-15500,2188,4310,1414,-190,2768,191907
1532,-15896,2352,6652,1457,-581,2784,191928
1700,-16480,2284,9094,1069,-892,2784,191949
1280,-17012,2748,11532,1005,-672,2672,191970
1132,-17076,3368,14981,744,166,2704,191991
904,-16452,3988,19585,1107,-160,2704,192012
1284,-15744,5108,23249,1032,-415,2704,192033
1448,-15648,6572,25450,1294,-392,2704,192054
1176,-14736,7336,26744,1006,-929,2704,192075
1644,-14412,8648,27344,133,-777,2720,192096
2048,-14300,10032,27050,27,-5,2704,192117
1928,-13148,11108,25901,-228,102,2704,192138
1640,-12316,12332,23847,29,-238,2720,192159
1156,-11668,12880,22415,1110,-743,2768,192180
1236,-10980,13784,21215,1647,-510,2736,192201
1472,-10280,14624,19734,1582,-486,2736,192222
1528,-9844,15300,18516,1543,-609,2720,192243
1340,-8796,15492,17860,831,-749,2816,192264
1244,-8272,15764,17301,2055,-544,2736,192285
1228,-7324,16088,16342,1947,-962,2704,192306
680,-6648,16396,15357,1366,-564,2784,192327
1224,-6380,17124,15485,804,381,2736,192348
1084,-6080,17280,16048,1547,348,2720,192369
1300,-5548,17708,17163,240,-620,2784,192390
860,-4564,17988,18521,-936,-1560,2768,192411
1348,-3548,17524,19259,-1238,-2148,2720,192432
1000,-2328,16724,19507,-779,-1122,2704,192453
712,-596,18684,20090,1336,226,2704,192474
1816,-1104,19096,20308,1325,430,2704,192495
448,24,18636,18290,330,-523,2704,192516
936,724,18668,16656,-2593,-925,2704,192537
1836,1804,17984,13964,-1233,-798,2640,192558
1872,2232,18060,12089,-571,-223,2720,192579
1672,2380,17736,10340,58,418,2704,192600
1428,2988,18536,9471,-483,897,2704,192621
1352,3516,18484,6830,678,14,2736,192642
1164,3700,18288,2733,471,-1372,2672,192663
1508,3688,17324,-1396,2638,-1824,2704,192684
1080,3916,16908,-5584,3385,-492,2736,192705
920,3664,19484,-9268,5170,450,2704,192726
748,3736,19436,-14219,4665,1165,2784,192747
-480,3316,20620,-25461,4596,-51,2720,192768
352,1608,19536,-32768,3418,-2247,2640,192789
732,-1716,20360,-32768,3005,-1636,2720,192810
1144,-4156,18880,-32768,3274,213,2720,192831
892,-7476,17984,-32768,4502,1668,2736,192852
-540,-9576,17200,-32768,1680,1261,2736,192873
316,-10048,15296,-32768,3408,25,2720,192894
-1064,-10876,12396,-32768,5426,-240,2720,192915
908,-12132,9504,-32768,4815,-817,2736,192936
-300,-14140,6932,-32768,292,-2421,2736,192957
-1464,-15676,7476,-32768,-1333,-2816,2720,192978
-1000,-15568,6924,-29101,193,-1440,2736,192999
516,-14696,4136,-23060,2876,-1107,2704,193020
208,-14580,2400,-15231,2398,-1833,2720,193041
636,-16016,1836,-9003,-478,-1763,2768,193062
804,-18108,2024,-6744,-1983,-2138,2736,193083
1128,-16056,1792,-7340,-2360,-2534,2736,193104
960,-14380,1648,-7208,-2037,-1774,2720,193125
620,-14768,884,-5475,-683,-391,2672,193146
452,-16024,804,-2835,-737,-53,2736,193167
820,-17952,960,-619,-316,-671,2720,193188
972,-16952,256,2966,-156,-1153,2720,193209
752,-15920,304,9448,386,-629,2720,193230
328,-16664,408,17347,-178,166,2736,193251
1392,-16168,1712,23733,-44,340,2736,193272
1184,-15932,2916,28849,142,1552,2768,193293
192,-15004,4524,32767,412,3765,2704,193314
720,-15648,6392,32767,107,4907,2704,193335
692,-15116,8204,32767,-451,5399,2736,193356
600,-14048,10472,32767,-1692,6367,2736,193377
292,-11772,13040,32767,-4019,6685,2736,193398
-240,-8012,14148,32767,-4025,6663,2656,193419
-484,-6824,15776,32767,-4209,5575,2704,193440
-560,-5648,16796,32767,-4729,4082,2736,193461
-1324,-5700,19108,32767,-6687,2748,2768,193482
-688,-3932,19556,32767,-8785,693,2656,193503
744,-1096,16940,32767,-10619,-662,2736,193524
1536,1496,17472,28282,-7860,-884,2720,193545
1872,1852,19244,19016,-3435,-2176,2704,193566
1740,1232,19768,13098,-1108,-4163,2736,193587
1524,2172,17880,9947,-796,-4351,2720,193608
848,2876,18568,8319,-1762,-2154,2768,193629
2032,3428,18228,5582,-1592,-1012,2832,193650
2168,3660,17728,1328,768,-1403,2832,193671
1632,2720,18096,-1877,2119,-1648,2736,193692
2244,2396,17376,-4313,2200,-1536,2720,193713
1324,2552,18724,-6085,1173,-785,2768,193734
792,3392,20136,-13934,863,196,2784,193755
1000,1972,22312,-25820,2503,1351,2736,193776
2968,840,20092,-32768,5538,2389,2736,193797
844,-2812,20200,-32768,1556,4009,2768,193818
776,-4556,20908,-32768,3145,4510,2672,193839
-648,-8632,21048,-32768,8452,6966,2784,193860
-620,-10560,14776,-32768,13734,8753,2736,193881
700,-9316,9952,-32768,15858,6486,2736,193902
-1148,-10708,7560,-32768,14272,2620,2704,193923
160,-11452,3728,-32768,9982,-412,2736,193944
168,-14464,2096,-32768,3422,-4057,2720,193965
-1964,-17780,2604,-32044,1842,-7079,2720,193986
-3736,-16756,1556,-12018,3428,-6451,2768,194007
-544,-15828,436,8106,5839,-5837,2720,194028
996,-17448,-1660,27351,3538,-5125,2704,194049
1932,-18648,388,32767,-1761,-3777,2768,194070
860,-16992,3628,32767,-4238,-975,2720,194091
780,-13224,7384,32767,-3104,2455,2720,194112
992,-11100,9296,32767,-3539,4705,2784,194133
1348,-11796,11428,32767,-127,10002,2704,194154
1196,-11804,13112,32767,-8471,14810,2656,194175
1316,-7896,15964,32767,-13265,18978,2768,194196
824,-1720,18796,32767,-17547,16871,2784,194217
-4,3776,16608,32767,-18165,9980,2720,194238
2184,3172,18764,32202,-5846,4246,2720,194259
3068,2676,14352,23839,-662,939,2784,194280
712,4596,21948,15053,-1463,-2119,2736,194301
-1712,7480,25272,3127,854,-5654,2720,194322
-1792,7204,17608,-16428,5916,-7745,2736,194343
-580,4804,17032,-32768,7485,-6469,2736,194364
1776,2832,18732,-32768,9871,-6406,2704,194385
-248,-3800,22300,-32768,7987,-6175,2736,194406
3548,-7344,17380,-32768,7536,-7301,2720,194427
1616,-10252,15272,-32768,9584,-9196,2720,194448
-812,-11196,13800,-32768,12504,-10231,2704,194469
280,-12372,7152,-32768,11382,-8846,2640,194490
752,-12936,5988,-32768,9208,-7412,2720,194511
-832,-14432,4552,-32768,5642,-4344,2736,194532
-964,-18480,3244,-32768,2230,-989,2736,194553
-100,-17952,1936,-31548,-493,1461,2704,194574
-396,-17424,964,-22795,1371,3042,2736,194595
1336,-15168,-28,-13115,2054,3039,2720,194616
1032,-14940,-832,-5349,-687,454,2720,194637
932,-14996,-736,-3000,-766,-1063,2704,194658
160,-15580,-696,-2642,-1333,-1810,2768,194679
-1032,-17088,-804,-2410,-770,-1485,2720,194700
-588,-17396,-936,85,701,-1017,2720,194721
276,-16724,-1228,5155,1079,-999,2736,194742
884,-16012,-172,8961,373,-834,2768,194763
1012,-16380,788,8379,-320,-176,2736,194784
12,-16656,1368,6055,-786,852,2720,194805
-488,-16348,1720,4696,-752,1973,2736,194826
-188,-16616,1496,5844,210,1985,2784,194847
108,-16300,880,7609,218,1116,2784,194868
-320,-16616,1264,9857,-840,509,2768,194889
-560,-16624,2196,10436,-863,343,2720,194910
-316,-15920,2732,9792,-786,529,2704,194931
-256,-16516,3316,10982,-471,623,2768,194952
72,-16420,3632,13246,-134,980,2704,194973
340,-16660,3644,16984,1180,941,2704,194994
-220,-16448,3912,23377,503,508,2736,195015
-756,-16444,5184,31133,-560,280,2736,195036
-52,-15876,6672,32767,-885,1636,2736,195057
-40,-14472,8952,32767,-623,4489,2672,195078
-188,-12552,10256,32767,-2091,6874,2704,195099
-68,-10996,12984,32767,-3774,5856,2720,195120
-956,-9452,14880,32767,-1359,1846,2736,195141
-2220,-8004,13800,32767,-6353,1506,2720,195162
-348,-6656,15804,32767,-12162,1003,2720,195183
392,-2820,17196,32767,-18312,-703,2720,195204
2100,2752,15800,32767,-22822,-3593,2816,195225
2984,5572,18300,32767,-16590,-6623,2704,195246
2084,20472,12380,15896,-11029,-8369,2768,195267
652,4288,18536,-3205,3500,-4670,2720,195288
4424,2132,15964,-9566,10004,764,2736,195309
1836,4340,17924,-10438,4077,2252,2720,195330
232,3536,19020,-12377,7242,1563,2736,195351
32,2836,19284,-14291,7638,-69,2720,195372
1160,1164,18220,-9322,6053,1041,2704,195393
484,680,17232,-5000,1489,2734,2720,195414
812,368,19920,-1591,986,4221,2720,195435
1488,1484,18340,-316,3555,2428,2768,195456
-884,560,17776,184,1380,2314,2736,195477
836,704,16760,-126,-2384,6053,2784,195498
1052,1156,20864,-1810,-2282,6305,2736,195519
3860,-476,22472,-1235,-138,4389,2704,195540
3588,424,16064,-3165,774,-1103,2768,195561
-4,-484,18744,-6024,5347,-1645,2720,195582
156,-628,17564,-2598,-308,22,2672,195603
776,904,18560,-2268,-798,-76,2736,195624
20,824,18820,-2257,-1117,675,2816,195645
1312,412,18940,-2246,-1523,976,2720,195666
2076,1036,18872,-1400,-2267,-187,2656,195687
2144,144,19056,578,-1813,-1496,2672,195708
392,-1540,18860,627,-540,-146,2704,195729
1520,-452,18556,-399,1184,-909,2736,195750
752,-588,18368,234,432,-302,2704,195771
940,-512,18408,1175,-1513,632,2736,195792
1628,-368,18724,387,-686,857,2736,195813
1556,-516,18620,-331,347,723,2720,195834
1768,-328,18012,-1184,2139,275,2704,195855
1192,-424,17908,-1422,4451,-477,2736,195876
888,-380,18544,-1675,4921,-638,2768,195897
744,320,17348,81,8328,2747,2768,195918
-372,356,17920,2476,6793,4755,2720,195939
212,608,16444,5142,14294,10130,2704,195960
880,-1704,23044,8737,7984,14792,2704,195981
-3820,-608,18644,348,15,1121,2768,196002
836,-804,18092,796,1324,-417,2736,196023
-1220,-360,18272,1760,3632,-1193,2720,196044
-544,28,18480,1244,2792,-880,2784,196065
-1360,760,17716,-534,458,-1193,2784,196086
-704,272,18036,-1351,-4264,-1300,2720,196107
-1456,-344,18704,14,-2620,-350,2736,196128
-912,260,18520,129,-2474,120,2720,196149
-268,-196,18672,705,-1976,37,2720,196170
-204,-92,18676,1066,-2368,-70,2736,196191
-400,88,18544,910,-1956,-268,2768,196212
148,244,18448,737,-1797,-787,2736,196233
-12,-60,18128,893,-1536,-438,2768,196254
172,72,18088,563,-804,-189,2720,196275
284,516,17664,541,-869,8,2784,196296
836,528,18388,1141,-1153,43,2704,196317
768,-32,17048,1433,4005,513,2768,196338
148,332,17468,644,6415,1207,2768,196359
-404,-148,16572,-16,7208,1390,2736,196380
-1596,2252,4120,-13435,8295,1963,2736,196401
10108,2900,1920,-8359,-21890,4854,2704,196422
-2340,200,13164,2866,3246,-2031,2720,196443
15196,6068,10536,-8429,-4452,-1631,2768,196464
-1324,28,17516,412,-197,-1,2720,196485
-360,-320,18400,507,360,170,2720,196506
-228,-324,18436,484,308,92,2704,196527
-344,-236,18572,481,298,127,2704,196548
-348,-340,18360,491,317,159,2720,196569
-464,-380,18472,486,362,289,2848,196590
-144,-244,18540,482,357,268,2736,196611
-312,-196,18388,491,349,90,2704,196632
-292,-276,18456,516,316,119,2704,196653
-400,-340,18480,496,343,117,2704,196674
-256,-308,18392,504,331,149,2704,196695
-212,-364,18504,489,310,120,2784,196716
-232,-296,18460,494,298,58,2768,196737
-308,-296,18516,514,353,72,2704,196758
-316,-248,18388,464,340,33,2784,196779
-408,-380,18456,504,314,46,2736,196800
-252,-284,18516,453,317,20,2720,196821
-332,-368,18436,525,320,72,2768,196842
-296,-288,18384,497,330,68,2720,196863
-332,-240,18480,485,316,56,2720,196884
-344,-228,18504,483,338,72,2720,196905
-272,-332,18452,463,315,44,2768,196926
-212,-328,18424,508,308,53,2720,196947
-312,-420,18452,494,337,28,2720,196968
-272,-320,18488,546,342,48,2720,196989
-364,-208,18640,494,331,68,2768,197010
-216,-200,18436,500,302,38,2784,197031
-292,-312,18480,471,347,90,2720,197052
-324,-360,18424,480,336,21,2768,197073
-364,-352,18480,503,344,53,2736,197094
-308,-264,18604,532,349,70,2656,197115
-304,-268,18504,522,343,78,2832,197136
-256,-300,18448,486,347,37,2736,197157
-268,-336,18432,473,362,49,2736,197178
-324,-336,18452,493,332,60,2720,197199
-304,-308,18416,511,336,51,2736,197220
-360,-268,18536,501,330,31,2736,197241
-276,-228,18436,525,320,42,2704,197262
-256,-196,18516,515,318,60,2704,197283
-324,-336,18492,436,300,15,2736,197304
-348,-408,18504,500,348,83,2768,197325
-376,-376,18488,545,343,31,2704,197346
-216,-260,18488,508,342,52,2768,197367
-316,-208,18580,515,329,30,2768,197388
-272,-196,18552,517,311,33,2704,197409
-304,-264,18464,496,307,31,2720,197430
-400,-400,18484,500,329,40,2768,197451
-360,-312,18500,495,302,35,2704,197472
-284,-276,18436,541,313,58,2736,197493
-220,-152,18440,488,331,45,2704,197514
-280,-288,18480,477,348,61,2720,197535
-376,-316,18476,473,324,38,2656,197556
-324,-384,18476,492,327,69,2720,197577
-288,-376,18424,504,312,64,2704,197598
-304,-308,18488,524,337,66,2672,197619
-224,-188,18480,490,307,52,2720,197640
-300,-260,18572,493,328,58,2720,197661
-312,-284,18384,521,313,57,2704,197682
-328,-416,18428,495,337,42,2704,197703
-268,-348,18328,502,332,60,2816,197724
-204,-268,18436,507,325,41,2704,197745
-268,-232,18488,468,347,51,2768,197766
-328,-260,18524,501,319,55,2720,197787
-324,-292,18412,477,338,73,2736,197808
-252,-352,18480,485,317,45,2640,197829
-300,-340,18468,473,353,25,2704,197850
-308,-264,18564,487,317,68,2704,197871
-284,-220,18508,497,334,31,2720,197892
-308,-292,18328,531,314,52,2704,197913
-232,-352,18480,500,326,54,2720,197934
-228,-352,18380,506,339,51,2720,197955
-308,-352,18532,488,340,62,2704,197976
-336,-268,18556,493,360,70,2704,197997
-344,-220,18396,502,322,55,2720,198018
-252,-340,18344,480,303,46,2720,198039
-292,-380,18360,467,327,50,2768,198060
-296,-420,18472,510,392,34,2784,198081
-328,-320,18492,511,303,75,2736,198102
-316,-304,18500,504,286,66,2672,198123
-2124,56,18376,485,297,1175,2736,198144
-1004,36,18496,411,294,3324,2720,198165
684,-516,18408,418,406,2733,2736,198186
760,-872,18512,450,329,436,2656,198207
-376,-264,18544,495,306,69,2736,198228
-324,-304,18512,504,342,48,2736,198249
-292,-304,18464,476,291,52,2704,198270
-268,-316,18376,496,366,69,2656,198291
-344,-312,18436,519,360,44,2720,198312
-360,-264,18468,494,328,41,2736,198333
-424,-308,18432,480,347,56,2720,198354
-344,-292,18480,479,300,66,2672,198375
-284,-356,18512,511,309,48,2704,198396
-260,-340,18520,499,324,38,2816,198417
-336,-296,18340,492,347,84,2816,198438
-348,-312,18352,493,336,61,2784,198459
-308,-300,18400,510,302,43,2736,198480
-264,-312,18408,505,336,45,2704,198501
